AccX_entropy,AccX_complexity,AccX_fisher,AccX_shannon,Class,AccY_entropy,AccY_complexity,AccY_fisher,AccY_shannon,AccZ_entropy,AccZ_complexity,AccZ_fisher,AccZ_shannon,GyroX_entropy,GyroX_complexity,GyroX_fisher,GyroX_shannon,GyroY_entropy,GyroY_complexity,GyroY_fisher,GyroY_shannon,GyroZ_entropy,GyroZ_complexity,GyroZ_fisher,GyroZ_shannon,Timestamp_entropy,Timestamp_complexity,Timestamp_fisher,Timestamp_shannon
0.9446861069858279,0.07254194236126127,0.08668978642667143,0.9446861069858279,NORMAL,0.9773017237873179,0.030062596657429868,0.0469436580869081,0.9773017237873179,0.9555817343214371,0.06181438106265451,0.08039219662776756,0.9555817343214371,0.9782052048077343,0.028823599324603783,0.03958123856712175,0.9782052048077343,0.9791541533692312,0.027619971340654626,0.03353301353223751,0.9791541533692312,0.933716999091313,0.08422634782223222,0.10291288710141021,0.933716999091313,-0.0,-0.0,1.0,0.0
0.9442357776958392,0.07300945205615507,0.08806236677811492,0.9442357776958392,NORMAL,0.9752878653356777,0.032210269981128296,0.04891949372506265,0.9752878653356777,0.958889532928013,0.05773808911310249,0.07188928763889268,0.958889532928013,0.9776590151500564,0.029499675774047936,0.03948284132754446,0.9776590151500564,0.978318308719911,0.028524124476851903,0.03307113757461703,0.978318308719911,0.9363245147728606,0.08095991163351124,0.10314953194226611,0.9363245147728606,-0.0,-0.0,1.0,0.0
0.9420248492734435,0.07487379882711914,0.09125574441366396,0.9420248492734435,NORMAL,0.9765089176137631,0.030599259071403227,0.045576431751541,0.9765089176137631,0.9572181513599392,0.05976515891131702,0.07188928763889268,0.9572181513599392,0.9771128254923783,0.030174978832588316,0.04160307546831759,0.9771128254923783,0.9773264580599169,0.029703886972011755,0.0372473713781468,0.9773264580599169,0.9403698390402576,0.0773022046266484,0.09859246322219681,0.9403698390402576,-0.0,-0.0,1.0,0.0
0.93764688927097,0.08090226434194643,0.10558333073882993,0.93764688927097,NORMAL,0.978902868565682,0.027761977108832863,0.04134795050362209,0.978902868565682,0.9542474067778767,0.06352882358234034,0.07112685313072095,0.9542474067778767,0.9797203411739259,0.02659156440134507,0.03715388719754712,0.9797203411739259,0.9780059889679966,0.02876014468462793,0.037861018982629634,0.9780059889679966,0.9417590789045776,0.07585326628894967,0.09663891053926077,0.9417590789045776,-0.0,-0.0,1.0,0.0
0.9355899923435647,0.08319414386411396,0.11306463770929596,0.9355899923435647,NORMAL,0.9798947192256761,0.026578248891286578,0.03951073916281568,0.9798947192256761,0.9489635658649354,0.07043175027218364,0.07630669498184785,0.9489635658649354,0.9802665308316039,0.02591237262479068,0.03711222172695913,0.9802665308316039,0.9792270412460818,0.027140117655288728,0.03894155175944236,0.9792270412460818,0.9404523000655429,0.07724482706390555,0.09818855417224095,0.9404523000655429,-0.0,-0.0,1.0,0.0
0.9378009207659604,0.08136457072958687,0.10954731714849844,0.9378009207659604,NORMAL,0.9798947192256761,0.02657824889128586,0.034909811307864004,0.9798947192256761,0.9489635658649354,0.07043175027218364,0.07630669498184785,0.9489635658649354,0.9818736454164333,0.023502140289628708,0.032136806786329186,0.9818736454164333,0.9782351905860877,0.028322432685439894,0.041209378865076834,0.9782351905860877,0.9411318309736226,0.07637260661137729,0.09547669492852229,0.9411318309736226,-0.0,-0.0,1.0,0.0
0.9378009207659604,0.08136457072958687,0.11075164593308257,0.9378009207659604,NORMAL,0.978902868565682,0.027761977108832502,0.03674702264867041,0.978902868565682,0.9489635658649354,0.07043175027218364,0.07630669498184785,0.9489635658649354,0.9831052240072606,0.02186155493078983,0.03149118985798308,0.9831052240072606,0.9792270412460818,0.027140117655288728,0.03795892470878733,0.9792270412460818,0.9411318309736226,0.07637260661137729,0.09776685896639514,0.9411318309736226,-0.0,-0.0,1.0,0.0
0.9327864683311725,0.0878440731502057,0.11022048093573164,0.9327864683311725,NORMAL,0.9789028685656818,0.027761977108832495,0.03900285190080897,0.9789028685656818,0.9489635658649354,0.07043175027218364,0.07630669498184785,0.9489635658649354,0.9821048229105422,0.023058873052853614,0.03429390394729196,0.9821048229105422,0.9770921413133394,0.03019806896190823,0.046601918796070264,0.9770921413133394,0.9428032125416965,0.07441257087612953,0.09159667438187531,0.9428032125416965,-0.0,-0.0,1.0,0.0
0.932449414306659,0.08812536275005892,0.11120697426725147,0.932449414306659,NORMAL,0.9794443899356874,0.02708684650502808,0.0367747722582768,0.9794443899356874,0.9489635658649354,0.07043175027218364,0.07630669498184785,0.9489635658649354,0.9838340224375179,0.02113513937715648,0.031304170042920645,0.9838340224375179,0.9761002906533452,0.03137457950970158,0.04847375383772927,0.9761002906533452,0.9438252203333424,0.07352214508714736,0.09486263828414457,0.9438252203333424,-0.0,-0.0,1.0,0.0
0.9243431758087063,0.10157099606270611,0.1256457284084945,0.9243431758087063,NORMAL,0.9794443899356874,0.02708684650502844,0.03634415649344872,0.9794443899356874,0.9493006198894488,0.07013807794411606,0.07782167396162831,0.9493006198894488,0.9843802120951962,0.020449943966508795,0.029323998612312798,0.9843802120951962,0.9721078460102033,0.037452104913517886,0.060748126541595775,0.9721078460102033,0.9438252203333423,0.07352214508714734,0.09865810677613242,0.9438252203333423,-0.0,-0.0,1.0,0.0
0.9259365543714432,0.09944492485912204,0.12323191901307386,0.9259365543714432,NORMAL,0.9802802345850076,0.026180370943594575,0.03369672890454866,0.9802802345850076,0.9506779859087745,0.06866811504084917,0.08057271496900476,0.9506779859087745,0.9810438979833909,0.024790038849645916,0.03589684684809157,0.9810438979833909,0.9721078460102033,0.037452104913517886,0.06002331112103587,0.9721078460102033,0.9398327756902004,0.07921095381557985,0.10385294759837733,0.9398327756902004,-0.0,-0.0,1.0,0.0
0.9274088914530776,0.09815571095590607,0.1256598132361373,0.9274088914530776,NORMAL,0.9802802345850076,0.026180370943594575,0.03369672890454866,0.9802802345850076,0.9528128858415169,0.06578265416333959,0.081434073083378,0.9528128858415169,0.9803585090502416,0.025744036573061846,0.03644214188197017,0.9803585090502416,0.9714283151021236,0.03838383397111387,0.06247115398977914,0.9714283151021236,0.9374388247382816,0.0817981260777827,0.10787742864348514,0.9374388247382816,-0.0,-0.0,1.0,0.0
0.9277459454775911,0.09787993202796896,0.1257934800863024,0.9277459454775911,NORMAL,0.9812720852450019,0.024993299509410215,0.03242698923215668,0.9812720852450019,0.9534924167495965,0.06488934644864011,0.08019139293679904,0.9534924167495965,0.9791269304594142,0.02737500179805711,0.041729240673150425,0.9791269304594142,0.9697569335340497,0.04047337383067053,0.06456309295239662,0.9697569335340497,0.9364469740782874,0.08286970475044486,0.11012979536653214,0.9364469740782874,-0.0,-0.0,1.0,0.0
0.931738390120733,0.09235300819001467,0.11526675607533722,0.931738390120733,NORMAL,0.9805925543369219,0.025942937491436183,0.03321498139539257,0.9805925543369219,0.9534924167495965,0.06488934644864011,0.08615200486002635,0.9534924167495965,0.9786727190203741,0.02788471698527539,0.04093638470690538,0.9786727190203741,0.9697569335340497,0.04047337383067053,0.06246597164824944,0.9697569335340497,0.9364469740782874,0.08286970475044486,0.10432360482161263,0.9364469740782874,-0.0,-0.0,1.0,0.0
0.9357308347638751,0.08677510949901415,0.11238120389016368,0.9357308347638751,NORMAL,0.9812720852450019,0.024993299509409858,0.03325359706096022,0.9812720852450019,0.9564551945874697,0.061758921578450234,0.08572163921889973,0.9564551945874697,0.9786727190203741,0.02788471698527539,0.041862909391708614,0.9786727190203741,0.9697569335340497,0.04047337383067053,0.06246597164824944,0.9697569335340497,0.9364469740782874,0.08286970475044486,0.10432360482161263,0.9364469740782874,-0.0,-0.0,1.0,0.0
0.9353937807393615,0.08705787247115099,0.1142017988096477,0.9353937807393615,NORMAL,0.9829434668130755,0.022850978219907905,0.029986694733878612,0.9829434668130755,0.9564551945874697,0.061758921578450234,0.08572163921889973,0.9564551945874697,0.9791269304594142,0.02737500179805711,0.041729240673150425,0.9791269304594142,0.9650419195070626,0.04716329522223449,0.07649323362843119,0.9650419195070626,0.9364469740782874,0.08286970475044486,0.10432360482161263,0.9364469740782874,-0.0,-0.0,1.0,0.0
0.9310479523842236,0.09163521645018109,0.11702789300300581,0.9310479523842236,NORMAL,0.9829434668130755,0.022850978219908266,0.03006701113144879,0.9829434668130755,0.9555413469328127,0.06313240392209132,0.09084688497572356,0.9555413469328127,0.9800486561110944,0.025923625790074567,0.04023483003418916,0.9800486561110944,0.9629850225796573,0.04960442941092952,0.08051885882018542,0.9629850225796573,0.9364469740782874,0.08286970475044486,0.10432360482161263,0.9364469740782874,-0.0,-0.0,1.0,0.0
0.930662437024892,0.09198493968841777,0.11951883075934533,0.930662437024892,NORMAL,0.9829434668130755,0.022850978219908627,0.029709006940338487,0.9829434668130755,0.9564551945874697,0.061758921578450934,0.09521671995884101,0.9564551945874697,0.9816557706959238,0.02351396560230968,0.0359062357456926,0.9816557706959238,0.9646994426234966,0.04777397380704768,0.07602183397669005,0.9646994426234966,0.9334762294962251,0.08646999800142541,0.11374900784478623,0.9334762294962251,-0.0,-0.0,1.0,0.0
0.9324230361572992,0.09064020976327655,0.1187585787023629,0.9324230361572992,NORMAL,0.9822639359049958,0.02380377478807913,0.02995636471101099,0.9822639359049958,0.954861816024733,0.06402908065931892,0.09640220753266643,0.954861816024733,0.9795024664534163,0.02660265383285228,0.03897299504179375,0.9795024664534163,0.9617286980414341,0.051606964445740776,0.08146281590916399,0.9617286980414341,0.9338132835207384,0.0861877309416754,0.11215729961064629,0.9338132835207384,-0.0,-0.0,1.0,0.0
0.9328085515166307,0.09028912521663067,0.11622951318213588,0.9328085515166307,NORMAL,0.9817224145349901,0.024482746057037284,0.0316956735017918,0.9817224145349901,0.9544763006654015,0.06440081550170682,0.09538034313080053,0.9544763006654015,0.9785807408017362,0.028052554044168038,0.042060556663760636,0.9785807408017362,0.9617286980414341,0.051606964445740776,0.08188117348824675,0.9617286980414341,0.9334762294962249,0.08646999800142538,0.108420086506426,0.9334762294962249,-0.0,-0.0,1.0,0.0
0.9341859175359564,0.08887798200317522,0.11579833587865783,0.9341859175359564,NORMAL,0.983194751616625,0.02298506110328689,0.03297295652813983,0.983194751616625,0.9463700621674489,0.07840428097794501,0.1242703423478518,0.9463700621674489,0.9759732251201887,0.03162773126430754,0.046158482132080805,0.9759732251201887,0.9570136840144471,0.058183368233318655,0.0924124346931675,0.9570136840144471,0.9334762294962249,0.08646999800142538,0.108420086506426,0.9334762294962249,-0.0,-0.0,1.0,0.0
0.9345229715604697,0.08859632177606104,0.11447399033852816,0.9345229715604697,NORMAL,0.9843676502904584,0.021748553213225552,0.033229038160866795,0.9843676502904584,0.9458285407974432,0.07902620717423553,0.12505859971230654,0.9458285407974432,0.9763620638877902,0.031232191326786514,0.04597589635063697,0.9763620638877902,0.9537058854078712,0.06224933780088625,0.1002874031645952,0.9537058854078712,0.9322551772181397,0.0879333912340293,0.10504361241423432,0.9322551772181397,-0.0,-0.0,1.0,0.0
0.9356736798468409,0.08773047154728668,0.11390990064050142,0.9356736798468409,NORMAL,0.9838261289204527,0.022430166224031507,0.03524414859014475,0.9838261289204527,0.944607488519358,0.08052157595357756,0.12767290271849557,0.944607488519358,0.9753616627910721,0.03241138089288281,0.04722852221907205,0.9753616627910721,0.9552992639706082,0.059979207508635966,0.10079928885222969,0.9552992639706082,0.9322551772181397,0.0879333912340293,0.10435981555049934,0.9322551772181397,-0.0,-0.0,1.0,0.0
0.936509524496161,0.08692075813420107,0.10857962296186392,0.936509524496161,NORMAL,0.9838261289204527,0.022430166224031507,0.03524414859014475,0.9838261289204527,0.9424725885866156,0.08334626827793531,0.13116761836866364,0.9424725885866156,0.9746762738579228,0.033354292355076566,0.05156948036732896,0.9746762738579228,0.9570136840144471,0.058183368233318655,0.09822173802402248,0.9570136840144471,0.9389840496967667,0.07568362245382211,0.07321876211151293,0.9389840496967667,-0.0,-0.0,1.0,0.0
0.9405019691393031,0.08128722657029773,0.09777774870259988,0.9405019691393031,NORMAL,0.9833757996304643,0.022942801857639465,0.035434829927946235,0.9833757996304643,0.9438499546059412,0.08190763419078723,0.13235526029569597,0.9438499546059412,0.9732870339936028,0.03492222116008932,0.0536726326839989,0.9732870339936028,0.9587281040582862,0.056380709065812315,0.09453023090318022,0.9587281040582862,0.9425261650499202,0.0704532970545334,0.07025721704815623,0.9425261650499202,-0.0,-0.0,1.0,0.0
0.9430871983620339,0.07800054822107888,0.09112461710488594,0.9430871983620339,NORMAL,0.9829254703404758,0.023454958572853245,0.03513674041399636,0.9829254703404758,0.9458638130575813,0.07993943969931924,0.13152216773183364,0.9458638130575813,0.9739724229267523,0.03398182373925392,0.05098970598365342,0.9739724229267523,0.9594076349663659,0.05547461504801807,0.09063462521103943,0.9594076349663659,0.9451364362758166,0.06834291147743836,0.06474300638219503,0.9451364362758166,-0.0,-0.0,1.0,0.0
0.9452220982947763,0.07516167083202771,0.09076271213266537,0.9452220982947763,NORMAL,0.9829254703404758,0.023454958572853245,0.03710438769575708,0.9829254703404758,0.9448719623975871,0.08102415767548828,0.13370940786576208,0.9448719623975871,0.9761257271692596,0.030927510997763728,0.04586101896710105,0.9761257271692596,0.9588661135963604,0.05611928438858294,0.09242133580901665,0.9588661135963604,0.9465436516962276,0.06592499677622456,0.05996963557272369,0.9465436516962276,-0.0,-0.0,1.0,0.0
0.9447717690047877,0.07562823703599346,0.08961862852203006,0.9447717690047877,NORMAL,0.9833757996304643,0.022942801857639826,0.03527386200955283,0.9833757996304643,0.9452574777569187,0.08066347036602974,0.12898686540309237,0.9452574777569187,0.973518211487712,0.034485639162459836,0.05061527377367144,0.973518211487712,0.9588661135963604,0.05611928438858294,0.0960583774802421,0.9588661135963604,0.9435430577130798,0.07057260902389863,0.07126040319844834,0.9435430577130798,-0.0,-0.0,1.0,0.0
0.948648394497318,0.07121154334755386,0.08259943593935053,0.948648394497318,NORMAL,0.9833757996304643,0.022942801857639826,0.03425691915544379,0.9833757996304643,0.9452574777569187,0.08066347036602939,0.12819992739773656,0.9452574777569187,0.9745186125844304,0.033310933255745925,0.04971581772054555,0.9745186125844304,0.9571516935525214,0.05792269998385988,0.10270418607898896,0.9571516935525214,0.9435430577130797,0.07057260902389896,0.06772011634055865,0.9435430577130797,-0.0,-0.0,1.0,0.0
0.9503197760653919,0.06922463203268067,0.07632299536926518,0.9503197760653919,NORMAL,0.9839173210004697,0.022261794269692426,0.030074000478757024,0.9839173210004697,0.9416502407425418,0.08482926946121885,0.1322825777153307,0.9416502407425418,0.9723653083419228,0.036354714675228106,0.054575662395734206,0.9723653083419228,0.9576932149225268,0.05728031634927831,0.10116277568752749,0.9576932149225268,0.9461282869358105,0.06724453459237176,0.0639270783137375,0.9461282869358105,-0.0,-0.0,1.0,0.0
0.9503197760653919,0.06922463203268067,0.07632299536926518,0.9503197760653919,NORMAL,0.9825399549811441,0.02385503503853251,0.029836407786634163,0.9825399549811441,0.9421917621125474,0.08421382685200897,0.13048686889792538,0.9421917621125474,0.9699507198817978,0.03916205734350958,0.055808319515181545,0.9699507198817978,0.9597501118499323,0.05487022054288893,0.0951574611758221,0.9597501118499323,0.9456779576458221,0.06771538527714716,0.06299243689877006,0.9456779576458221,-0.0,-0.0,1.0,0.0
0.9503197760653919,0.06922463203268067,0.07684560897569291,0.9503197760653919,NORMAL,0.9820896256911557,0.024366320256369766,0.028426317826488225,0.9820896256911557,0.9499124852511687,0.07069471832803921,0.10190187741447125,0.9499124852511687,0.9683436052969685,0.0415160864501113,0.06008328420673409,0.9683436052969685,0.9597501118499323,0.05487022054288893,0.0951574611758221,0.9597501118499323,0.9456779576458221,0.06771538527714716,0.06299243689877006,0.9456779576458221,-0.0,-0.0,1.0,0.0
0.9546977360678653,0.0630511508533683,0.06382820594931833,0.9546977360678653,NORMAL,0.9808685734130703,0.025994735459045785,0.030400521997735828,0.9808685734130703,0.9463703698980153,0.07596942831861321,0.11720318831969774,0.9463703698980153,0.9709511209785161,0.03799673506850638,0.05516300093816248,0.9709511209785161,0.9602004411399208,0.05438538715141169,0.09347877773925281,0.9602004411399208,0.9456779576458221,0.06771538527714716,0.06299243689877006,0.9456779576458221,-0.0,-0.0,1.0,0.0
0.9546977360678653,0.0630511508533683,0.06926132125181034,0.9546977360678653,NORMAL,0.9812540887724017,0.02559621213082337,0.030003677461054062,0.9812540887724017,0.94514931761993,0.07746971577808706,0.12382712898803977,0.94514931761993,0.9742874350903212,0.03374825948812076,0.04830850031060922,0.9742874350903212,0.9615778071592463,0.05287365213884113,0.09074648039088967,0.9615778071592463,0.9456779576458221,0.06771538527714716,0.06299243689877006,0.9456779576458221,-0.0,-0.0,1.0,0.0
0.9546977360678653,0.0630511508533683,0.059841370384820965,0.9546977360678653,NORMAL,0.9800330364943166,0.02722165813982003,0.034044993356440435,0.9800330364943166,0.9455996469099187,0.0770038118132642,0.1187824643831755,0.9455996469099187,0.9742874350903212,0.03374825948812076,0.048112077922899094,0.9742874350903212,0.9629551731785722,0.05135736280826185,0.08544340829896496,0.9629551731785722,0.9430927284230911,0.07104040893169744,0.06254987902901711,0.9430927284230911,-0.0,-0.0,1.0,0.0
0.9553772669759448,0.06215394767702509,0.05548464749587073,0.9553772669759448,NORMAL,0.9796475211349851,0.027619020909565764,0.033591413105845375,0.9796475211349851,0.9446937659994508,0.07772774218016183,0.12008196342566033,0.9446937659994508,0.9733391285452611,0.034897409646738806,0.050420902744295545,0.9733391285452611,0.9659259177606346,0.04751832334523303,0.0768190433167576,0.9659259177606346,0.9399409358271893,0.07375846114314714,0.06135969187646529,0.9399409358271893,-0.0,-0.0,1.0,0.0
0.9575121669086872,0.05923817998746784,0.05301743927624596,0.9575121669086872,NORMAL,0.9780541425722483,0.03000478173695891,0.040359974725213486,0.9780541425722483,0.9446937659994508,0.07772774218016183,0.12302205417218148,0.9446937659994508,0.9733391285452611,0.034897409646738806,0.05208704421058548,0.9733391285452611,0.9629551731785722,0.05135736280826185,0.07991614062161748,0.9629551731785722,0.9403264511865207,0.07339702126045672,0.062490088639088705,0.9403264511865207,-0.0,-0.0,1.0,0.0
0.9584260145633444,0.05785790219606846,0.06153874364628085,0.9584260145633444,NORMAL,0.9790459932322425,0.028824402009039497,0.04216823713833664,0.9790459932322425,0.9446937659994508,0.07772774218016183,0.12302205417218148,0.9446937659994508,0.9754740284780037,0.0318619930499851,0.04645292260066472,0.9754740284780037,0.9659557671617198,0.046545433171124896,0.068538644784451,0.9659557671617198,0.9407767804765091,0.07293192069133905,0.06342473005405616,0.9407767804765091,-0.0,-0.0,1.0,0.0
0.9554254205801967,0.0625945222883365,0.06579628291430237,0.9554254205801967,NORMAL,0.9795875146022481,0.028149755899338488,0.04124885052175722,0.9795875146022481,0.9437019153394567,0.07881323141121156,0.12884147233249293,0.9437019153394567,0.9768513944973293,0.030291982201186316,0.041933717768343357,0.9768513944973293,0.9703337271641933,0.04015766988842923,0.05796363817054118,0.9703337271641933,0.9407767804765091,0.07293192069133905,0.06342473005405616,0.9407767804765091,-0.0,-0.0,1.0,0.0
0.9537110005363574,0.06437911387393422,0.06793691774383094,0.9537110005363574,NORMAL,0.9795875146022481,0.028149755899337766,0.0398012919028201,0.9795875146022481,0.9449229676175418,0.07731728347377542,0.12395358048861449,0.9449229676175418,0.9764010652073408,0.030797211462206073,0.042526257463448854,0.9764010652073408,0.9713255778241877,0.03899745829381479,0.056334866971641924,0.9713255778241877,0.9417686311365033,0.0718441059924899,0.062240118034142325,0.9417686311365033,-0.0,-0.0,1.0,0.0
0.9597603421069052,0.05256432659233615,0.05032066621347006,0.9597603421069052,NORMAL,0.9795875146022481,0.028149755899337766,0.0398012919028201,0.9795875146022481,0.9470578675502842,0.07447066284297958,0.11903326897423477,0.9470578675502842,0.9768513944973293,0.030291982201186316,0.040922333310164274,0.9768513944973293,0.9739108070469187,0.03547640938103964,0.05376975620199156,0.9739108070469187,0.9453107464896569,0.0665821996627753,0.05147123007768496,0.9453107464896569,-0.0,-0.0,1.0,0.0
0.9576254421741628,0.055502421185680606,0.05170577784558288,0.9576254421741628,NORMAL,0.9795875146022479,0.028149755899337763,0.03814305677821983,0.9795875146022479,0.947963748460752,0.07374143470569694,0.11880415296062513,0.947963748460752,0.9763098731273239,0.030963468263890147,0.04169039194355362,0.9763098731273239,0.9743611363369072,0.03497470424253282,0.05583109484302154,0.9743611363369072,0.9426173571299369,0.06945759473650923,0.05261574197326559,0.9426173571299369,-0.0,-0.0,1.0,0.0
0.9581669635441682,0.05485831872832881,0.052799069633943235,0.9581669635441682,NORMAL,0.9783664623241627,0.0297691464548865,0.0385736725430479,0.9783664623241627,0.947049900806095,0.07509010734229554,0.1262326299574586,0.947049900806095,0.9750888208492384,0.032573679266686,0.04373120654980523,0.9750888208492384,0.9729837703175817,0.03653386931819314,0.061773818527345745,0.9729837703175817,0.9405604602025318,0.07178850246446233,0.05033147348950466,0.9405604602025318,-0.0,-0.0,1.0,0.0
0.9568755672743688,0.05599095326250962,0.0523673735110858,0.9568755672743688,NORMAL,0.9790459932322425,0.028824402009039136,0.035373042447577885,0.9790459932322425,0.9537787732847218,0.06253616207415975,0.08819595179268667,0.9537787732847218,0.972953920916496,0.035606281230014074,0.05033440709852232,0.972953920916496,0.9703985410948506,0.04004856844335942,0.06797638946198062,0.9703985410948506,0.9405604602025318,0.07178850246446233,0.04710766113388548,0.9405604602025318,-0.0,-0.0,1.0,0.0
0.9591588142041624,0.05372889270620098,0.04906218375449091,0.9591588142041624,NORMAL,0.9780541425722482,0.03000478173695819,0.03217513553266372,0.9780541425722482,0.9563640025074529,0.0591461328583622,0.08027789177748867,0.9563640025074529,0.9723174284841818,0.03617837551251652,0.048859038412901463,0.9723174284841818,0.970784056454182,0.039660099868154206,0.06730179495531163,0.970784056454182,0.9441676972169086,0.06757824330640537,0.0437966385640563,0.9441676972169086,-0.0,-0.0,1.0,0.0
0.9598813835880073,0.053047290842109414,0.046027733392291374,0.9598813835880073,NORMAL,0.9757330794971799,0.03399370834135862,0.04072214407967228,0.9757330794971799,0.9546926209393791,0.061164862372790924,0.08420789074500802,0.9546926209393791,0.974452328416924,0.03314911137042947,0.04167606533476135,0.974452328416924,0.971506625838027,0.03895879650961105,0.06559871943822834,0.971506625838027,0.9441676972169086,0.06757824330640537,0.0437966385640563,0.9441676972169086,-0.0,-0.0,1.0,0.0
0.9619382805154126,0.050622068429159936,0.04119399696953912,0.9619382805154126,NORMAL,0.9757330794971799,0.03399370834135862,0.04272206347306443,0.9757330794971799,0.9533152549200535,0.06265270610422391,0.08625547760952529,0.9533152549200535,0.9760457069796608,0.030777623993008485,0.04006405409593245,0.9760457069796608,0.971506625838027,0.03895879650961177,0.06510489119227605,0.971506625838027,0.9441676972169086,0.06757824330640537,0.0437966385640563,0.9441676972169086,-0.0,-0.0,1.0,0.0
0.9609162727237666,0.05155695969921756,0.04039423531963274,0.9609162727237666,NORMAL,0.9762746008671856,0.033324320809420396,0.0433083905623454,0.9762746008671856,0.9509213039681347,0.06532442394311959,0.08745387020987608,0.9509213039681347,0.9734604777569301,0.03431927042881886,0.046136323686838926,0.9734604777569301,0.971506625838027,0.03895879650961177,0.06419796696590233,0.971506625838027,0.9441676972169086,0.06757824330640537,0.0437966385640563,0.9441676972169086,-0.0,-0.0,1.0,0.0
0.960374751353761,0.05220494954043239,0.040081761176209346,0.960374751353761,NORMAL,0.975595069959106,0.034263143493824325,0.04650902065781542,0.975595069959106,0.9509213039681347,0.06532442394311959,0.08745387020987608,0.9509213039681347,0.9751318593250039,0.032210666644736465,0.04424563322431337,0.9751318593250039,0.971506625838027,0.03895879650961177,0.06591340414031803,0.971506625838027,0.9441676972169086,0.06757824330640537,0.0437966385640563,0.9441676972169086,-0.0,-0.0,1.0,0.0
0.959538906704441,0.053069436207584836,0.04114705049193189,0.959538906704441,NORMAL,0.9765869206191002,0.033090210967283824,0.047396773053856145,0.9765869206191002,0.9509213039681347,0.06532442394311959,0.08745387020987608,0.9509213039681347,0.9751318593250039,0.032210666644736465,0.044603637415423676,0.9751318593250039,0.9706707811887069,0.039845756502553176,0.06827725831871903,0.9706707811887069,0.9459421237934847,0.06629480820772629,0.0453405503493959,0.9459421237934847,-0.0,-0.0,1.0,0.0
0.959538906704441,0.05306943620758554,0.04374016243450329,0.959538906704441,NORMAL,0.9753658683410148,0.03469824233851903,0.04909168944346577,0.9753658683410148,0.9502848115358202,0.0658625954819635,0.08849643682303879,0.9502848115358202,0.9751318593250039,0.032210666644736465,0.044603637415423676,0.9751318593250039,0.9689563611448679,0.041702614262630985,0.0722481609414368,0.9689563611448679,0.9468877953649109,0.06565254629606723,0.046619895972901844,0.9468877953649109,-0.0,-0.0,1.0,0.0
0.9607599589825263,0.05151226380194634,0.03976925981178552,0.9607599589825263,NORMAL,0.9676451452023939,0.04889802611093929,0.08248287324174318,0.9676451452023939,0.9498344822458316,0.06633645124808814,0.08875304407995588,0.9498344822458316,0.9751318593250039,0.032210666644736465,0.044603637415423676,0.9751318593250039,0.9685708457855363,0.042089479157483914,0.07562905889872638,0.9685708457855363,0.9468877953649109,0.06565254629606723,0.04175237027024102,0.9468877953649109,-0.0,-0.0,1.0,0.0
0.9619810112606115,0.04995096164415144,0.037033704092211406,0.9619810112606115,NORMAL,0.9683246761104736,0.04797751616307474,0.07651445257862928,0.9683246761104736,0.9510555345239167,0.06481343492322457,0.09004958670150501,0.9510555345239167,0.9745903379549983,0.032879845352808225,0.04574079207257289,0.9745903379549983,0.9681853304262047,0.04247602288045896,0.07586489834588579,0.9681853304262047,0.9495811847246306,0.0627515466718501,0.039717957427082416,0.9495811847246306,-0.0,-0.0,1.0,0.0
0.9619810112606115,0.04995096164415144,0.04215934417662235,0.9619810112606115,NORMAL,0.961054282261841,0.06148211353397131,0.10966666770026241,0.961054282261841,0.9530693929755569,0.06279139438795857,0.08984558384343158,0.9530693929755569,0.9751318593250039,0.03221066664473611,0.043087873400816205,0.9751318593250039,0.9689078998100497,0.04177885522701559,0.07248922090331353,0.9689078998100497,0.9486673370699734,0.064113341485487,0.03729226961776597,0.9486673370699734,-0.0,-0.0,1.0,0.0
0.9609891606006175,0.051087936174780725,0.04356624764999927,0.9609891606006175,NORMAL,0.9617338131699206,0.06057723602660187,0.10601656641909778,0.9617338131699206,0.9544766083959679,0.06034331855744313,0.08835151539136492,0.9544766083959679,0.9742960146756838,0.03310697325743432,0.04673954115939193,0.9742960146756838,0.9692934151693812,0.04139172051191605,0.07100955566708217,0.9692934151693812,0.9486673370699734,0.064113341485487,0.034937833304101204,0.9486673370699734,-0.0,-0.0,1.0,0.0
0.9597681083225322,0.05264605094855981,0.047187682941699456,0.9597681083225322,NORMAL,0.9624133440780003,0.05967101837121084,0.10425103255235917,0.9624133440780003,0.9520826574440491,0.06302447517203778,0.09538397831210796,0.9520826574440491,0.9742960146756836,0.033106973257434315,0.04589407790972185,0.9742960146756836,0.9696789305287128,0.04100426462493899,0.07014909336037804,0.9696789305287128,0.949004391094487,0.0638175315345986,0.03867354290223597,0.949004391094487,-0.0,-0.0,1.0,0.0
0.962461497682252,0.049664162306164286,0.04481540432730117,0.962461497682252,NORMAL,0.9617338131699206,0.06057723602660187,0.10040683309903733,0.9617338131699206,0.9507052914247235,0.06450507174206861,0.09901094170109952,0.9507052914247235,0.9742960146756838,0.03310697325743432,0.048644552819008154,0.9742960146756838,0.9692934151693812,0.04139172051191605,0.07352999131766765,0.9692934151693812,0.9524363717949679,0.06037989850674035,0.03666524429025691,0.9524363717949679,-0.0,-0.0,1.0,0.0
0.9638388637015776,0.048141749399254315,0.042055695341235586,0.9638388637015776,NORMAL,0.9607419625099264,0.0617029325663134,0.10323415647509795,0.9607419625099264,0.9507052914247235,0.06450507174206861,0.10216938654069424,0.9507052914247235,0.9768812438984145,0.02955892208816667,0.043203033240060223,0.9768812438984145,0.9698349365393868,0.0407311312472593,0.07325604088466106,0.9698349365393868,0.9474219193601802,0.06708505743336497,0.0405560393895091,0.9474219193601802,-0.0,-0.0,1.0,0.0
0.9658957606289831,0.04569514630292261,0.036259790569971716,0.9658957606289831,NORMAL,0.9593645964906008,0.06320056172849955,0.1059664538234611,0.9593645964906008,0.955083251427197,0.05830710617458908,0.09612999024693371,0.955083251427197,0.9781022961764999,0.027941836847271542,0.04047981564505638,0.9781022961764999,0.9708267871993811,0.03957214410847232,0.06796550958547633,0.9708267871993811,0.9384097999517595,0.08166734488080196,0.07077464063183286,0.9384097999517595,-0.0,-0.0,1.0,0.0
0.9664372819989885,0.04503944633851226,0.0384721187960241,0.9664372819989885,NORMAL,0.9586850655825211,0.06410113915165763,0.10713979544583425,0.9586850655825211,0.9574772023791158,0.055604700478113424,0.09048513959776264,0.9574772023791158,0.9794796621958254,0.0263618394963886,0.03639482485353431,0.9794796621958254,0.9722041532187067,0.03802097058606801,0.06667537871644962,0.9722041532187067,0.9351020013451835,0.08556331143053697,0.07309863288621317,0.9351020013451835,-0.0,-0.0,1.0,0.0
0.9660517666396569,0.04542388759132674,0.038583673199527595,0.9660517666396569,NORMAL,0.957693214922527,0.06521922074946217,0.11031454677784246,0.957693214922527,0.9574772023791156,0.055604700478113056,0.09166706626081726,0.9574772023791156,0.9811510437638993,0.02422591559045545,0.03286108154221118,0.9811510437638993,0.9688963546121308,0.04222664752891239,0.07167039056907476,0.9688963546121308,0.9392234542136172,0.08107481996096833,0.07015770560612763,0.9392234542136172,-0.0,-0.0,1.0,0.0
0.9667743360235019,0.04473059982736145,0.04034296213406169,0.9667743360235019,NORMAL,0.9564721626444416,0.06675352117889378,0.11240707081233464,0.9564721626444416,0.9580187237491212,0.05496076523223509,0.08842274825548281,0.9580187237491212,0.9816925651339049,0.02354721323965295,0.032151177995745114,0.9816925651339049,0.9692334086366443,0.04191595711896977,0.0704093831731906,0.9692334086366443,0.9392234542136172,0.08107481996096833,0.07015770560612763,0.9392234542136172,-0.0,-0.0,1.0,0.0
0.9707667806666439,0.03871802934317838,0.03379646468289092,0.9707667806666439,NORMAL,0.9561351086199282,0.06705098046883677,0.11435421831941006,0.9561351086199282,0.9609894683311838,0.05115414551593578,0.08218176681784325,0.9609894683311838,0.9816925651339049,0.02354721323965295,0.02908478607505767,0.9816925651339049,0.9700692532859643,0.0410321963507243,0.0682816288112419,0.9700692532859643,0.9392234542136172,0.08107481996096833,0.07015770560612763,0.9392234542136172,-0.0,-0.0,1.0,0.0
0.9693894146473183,0.04026575772519637,0.03567161495769008,0.9693894146473183,NORMAL,0.9549622099460946,0.06819489974670341,0.11644653951775534,0.9549622099460946,0.9619813189911779,0.05001723892343106,0.07858678977791614,0.9619813189911779,0.9800991865711682,0.025944758961250543,0.030886785209852326,0.9800991865711682,0.9690774026259702,0.04218872222379012,0.0709443427719851,0.9690774026259702,0.9351020013451836,0.08556331143053697,0.07346214026297625,0.9351020013451836,-0.0,-0.0,1.0,0.0
0.9693894146473181,0.040265757725195646,0.03832303111837872,0.9693894146473181,NORMAL,0.9554125392360833,0.06771902485624087,0.11970353557083081,0.9554125392360833,0.9590105744091156,0.05383163739283411,0.08051989093517818,0.9590105744091156,0.979107335911174,0.027129386745979395,0.03512257427519102,0.979107335911174,0.9690774026259702,0.04218872222379048,0.06624736870939568,0.9690774026259702,0.9323495515527823,0.08798313973146943,0.07530391842421773,0.9323495515527823,-0.0,-0.0,1.0,0.0
0.9700259070796325,0.03969821165039676,0.03845950345802817,0.9700259070796325,NORMAL,0.9626829330847158,0.05434602658502722,0.08780566542066946,0.9626829330847158,0.9590105744091154,0.05383163739283409,0.08410959834494747,0.9590105744091154,0.979107335911174,0.027129386745979395,0.03521357595286268,0.979107335911174,0.9706707811887069,0.039845756502553537,0.060926365708964696,0.9706707811887069,0.9293900215297161,0.09050493659580226,0.07157586390344613,0.9293900215297161,-0.0,-0.0,1.0,0.0
0.9700259070796325,0.03969821165039676,0.03845950345802817,0.9700259070796325,NORMAL,0.9643973531285549,0.052524643745176625,0.08147282593227657,0.9643973531285549,0.9600024250691095,0.052700056266286384,0.08147319081303996,0.9600024250691095,0.9795576652011625,0.026620992211311558,0.03498958270740017,0.9795576652011625,0.9694497289106218,0.04143503302547007,0.06453926414057216,0.9694497289106218,0.933942930115519,0.08581244581975837,0.0678138904468677,0.933942930115519,-0.0,-0.0,1.0,0.0
0.9700259070796325,0.03969821165039676,0.03845950345802817,0.9700259070796325,NORMAL,0.9622624531958125,0.05547818138586876,0.08593557506449999,0.9622624531958125,0.9600024250691095,0.052700056266286384,0.08147319081303996,0.9600024250691095,0.9816925651339049,0.02354721323965259,0.03217719527835442,0.9816925651339049,0.9686138842613016,0.04231783639126825,0.06309983677436182,0.9686138842613016,0.9382887584706572,0.0811911911325897,0.06915595876310482,0.9382887584706572,-0.0,-0.0,1.0,0.0
0.9700259070796325,0.03969821165039676,0.03845950345802817,0.9700259070796325,NORMAL,0.9615829222877328,0.05638720454306211,0.09123848458231903,0.9615829222877328,0.9600024250691095,0.052700056266286384,0.08147319081303996,0.9600024250691095,0.9843859544936246,0.020410897382648455,0.02849398086038455,0.9843859544936246,0.9694497289106218,0.04143503302547007,0.05846046167976531,0.9694497289106218,0.9400031785144963,0.07946989491755509,0.07093908168560745,0.9400031785144963,-0.0,-0.0,1.0,0.0
0.9707054379877124,0.03876882506138877,0.03583860321671788,0.9707054379877124,NORMAL,0.9659608822902065,0.050074946249443024,0.08112560710048652,0.9659608822902065,0.9588295263952761,0.05386680600162523,0.08555317893831223,0.9588295263952761,0.9855588531674582,0.019169759684141623,0.027583962014166637,0.9855588531674582,0.9704415795706156,0.04027725899995406,0.059576116111208326,0.9704415795706156,0.9421380784472385,0.07664477261189648,0.0678485999104735,0.9421380784472385,-0.0,-0.0,1.0,0.0
0.970368383963199,0.039081124514269816,0.03668125303351927,0.970368383963199,NORMAL,0.9683548332421253,0.04731813129826924,0.07780661074943797,0.9683548332421253,0.9585300879874752,0.054115141731144345,0.0865422462806761,0.9585300879874752,0.9850173317974528,0.019853643863410823,0.026567019160057593,0.9850173317974528,0.972576479503358,0.03726314998644103,0.057702601238011596,0.972576479503358,0.9396100041415417,0.07897158186306286,0.06689867716633603,0.9396100041415417,-0.0,-0.0,1.0,0.0
0.970368383963199,0.039081124514269816,0.03668125303351927,0.970368383963199,NORMAL,0.9688963546121308,0.04666154028339108,0.07433376990347988,0.9688963546121308,0.955567310149602,0.057276835753445755,0.09245746788054958,0.955567310149602,0.9855588531674582,0.019169759684141623,0.02666457539758721,0.9855588531674582,0.9692686808967823,0.04147311971446213,0.06572512970690512,0.9692686808967823,0.9352641757864036,0.08361070101032517,0.06934401641040037,0.9352641757864036,-0.0,-0.0,1.0,0.0
0.9696888530551191,0.04000995061561199,0.03766975201980368,0.9696888530551191,NORMAL,0.9667614546793883,0.04964288952901876,0.07802204292301888,0.9667614546793883,0.9532462470745338,0.061104273004898145,0.0934384791817952,0.9532462470745338,0.9855588531674584,0.019169759684141623,0.027330086542882073,0.9855588531674584,0.9678913148774566,0.04301437134120443,0.0665736977896115,0.9678913148774566,0.941017219561953,0.07658489497129195,0.06382447791546332,0.941017219561953,-0.0,-0.0,1.0,0.0
0.9703683839631988,0.039081124514270524,0.04353209833668974,0.9703683839631988,NORMAL,0.9676753023340456,0.04823913474719796,0.07771613154305829,0.9676753023340456,0.9518688810552082,0.06258967914089107,0.09783983630629932,0.9518688810552082,0.9861003745374638,0.01848511198183809,0.025992546551680283,0.9861003745374638,0.9678913148774566,0.04301437134120443,0.06401425893277148,0.9678913148774566,0.9435452938676498,0.07424756328159497,0.06310290394297859,0.9435452938676498,-0.0,-0.0,1.0,0.0
0.9703683839631988,0.039081124514270524,0.041962058699811594,0.9703683839631988,NORMAL,0.9676753023340456,0.04823913474719831,0.07713217192899831,0.9676753023340456,0.9557455065477386,0.05808220611222629,0.09410830194778681,0.9557455065477386,0.9851085238774697,0.019684824501917383,0.025630888375323034,0.9851085238774697,0.9691123671555417,0.04142980665291758,0.06286195336869281,0.9691123671555417,0.9458285407974432,0.0720648633132851,0.06136549012933536,0.9458285407974432,-0.0,-0.0,1.0,0.0
0.9703683839631988,0.039081124514270524,0.043885925780294356,0.9703683839631988,NORMAL,0.9744041748126725,0.03520409001532036,0.0473652106484237,0.9744041748126725,0.9562870279177439,0.05744095240154434,0.09104083740830192,0.9562870279177439,0.984658194587481,0.020199410401297878,0.026676115588178506,0.984658194587481,0.9695626964455304,0.04093350070899926,0.06055121756887435,0.9695626964455304,0.9478423992490832,0.07007086329861419,0.061491290349518515,0.9478423992490832,-0.0,-0.0,1.0,0.0
0.96797443301128,0.041864493779249015,0.049483448243522216,0.96797443301128,NORMAL,0.9735683301633523,0.036097118191418726,0.04873692938021661,0.9735683301633523,0.9557455065477384,0.05808220611222767,0.0910262834205758,0.9557455065477384,0.9851085238774697,0.019684824501917383,0.024785425125652946,0.9851085238774697,0.9703985410948506,0.04004856844335942,0.05719983250966442,0.9703985410948506,0.9468043695005209,0.07082405344514926,0.062219506744268196,0.9468043695005209,-0.0,-0.0,1.0,0.0
0.9672949021032003,0.04278893759881534,0.05166713548488319,0.9672949021032003,NORMAL,0.9735683301633523,0.036097118191418726,0.04873692938021661,0.9735683301633523,0.955203985177733,0.05872269629987491,0.08779683713480661,0.955203985177733,0.9855588531674582,0.019169759684141984,0.023814121279706817,0.9855588531674582,0.973940656448004,0.03449508374513597,0.04690029333739261,0.973940656448004,0.9452222054967807,0.07199178980007549,0.0633453102432368,0.9452222054967807,-0.0,-0.0,1.0,0.0
0.9672949021032003,0.04278893759881534,0.04910882607095408,0.9672949021032003,NORMAL,0.9709831009406213,0.039615211056584554,0.05316568775994341,0.9709831009406213,0.9556543144677216,0.05824221905333766,0.08415029317540938,0.9556543144677216,0.9855588531674584,0.019169759684141623,0.023867600401425968,0.9855588531674584,0.9749325071079981,0.03332449264559437,0.044007843372213404,0.9749325071079981,0.9448851514722671,0.07228332450959389,0.060461946257853644,0.9448851514722671,-0.0,-0.0,1.0,0.0
0.9684678007770339,0.04159730912326716,0.04824016998483477,0.9684678007770339,NORMAL,0.9698102022667878,0.04081259395404126,0.05324604526046902,0.9698102022667878,0.9571266515493558,0.05683823015820677,0.08058137446160053,0.9571266515493558,0.984337800889373,0.02081058645691198,0.029147196050096486,0.984337800889373,0.975655076491843,0.032615247351959344,0.04306893665093956,0.975655076491843,0.9448851514722671,0.07228332450959389,0.05992131186529023,0.9448851514722671,-0.0,-0.0,1.0,0.0
0.9679262794070282,0.04225641815456813,0.04841017514705149,0.9679262794070282,NORMAL,0.9689743576174679,0.041696288890136136,0.05753229034409119,0.9689743576174679,0.959140510000996,0.0547847839427655,0.07821576491973238,0.959140510000996,0.9822029009566305,0.023898877265808458,0.03555574339412692,0.9822029009566305,0.9744821778180096,0.033827273325850775,0.043949903503041905,0.9744821778180096,0.9454266728422727,0.07165824415636002,0.06210743400613823,0.9454266728422727,-0.0,-0.0,1.0,0.0
0.9688401270616854,0.04084388688130116,0.043159496780711966,0.9688401270616854,NORMAL,0.9689743576174679,0.04169628889013507,0.058084947739888156,0.9689743576174679,0.9596820313710017,0.05413915864535879,0.08028357115491307,0.9596820313710017,0.9805315193885568,0.026037739950755662,0.03963012109801345,0.9805315193885568,0.9736463331686894,0.03472155882861398,0.04690792612119763,0.9736463331686894,0.9454266728422727,0.07165824415636002,0.06210743400613823,0.9454266728422727,-0.0,-0.0,1.0,0.0
0.9702473424820964,0.03832044247951631,0.044749406055749244,0.9702473424820964,NORMAL,0.9699662082774618,0.040539390987986125,0.05281681856223293,0.9699662082774618,0.9600675467303331,0.053760992037810366,0.08019652742648509,0.9600675467303331,0.9784746224611512,0.028565660523678683,0.039853094795675684,0.9784746224611512,0.9731048117986838,0.03538826647452943,0.046158281653088225,0.9731048117986838,0.9431056097672046,0.07540668587797546,0.0678063442478342,0.9431056097672046,-0.0,-0.0,1.0,0.0
0.9728325717048275,0.03480171813293977,0.03783167321517268,0.9728325717048275,NORMAL,0.9703517236367932,0.04015130467058604,0.05239295677401975,0.9703517236367932,0.9600675467303331,0.053760992037810366,0.08019652742648509,0.9600675467303331,0.9784746224611512,0.028565660523678683,0.039853094795675684,0.9784746224611512,0.9731048117986838,0.03538826647452907,0.047340208316142836,0.9731048117986838,0.9437851406752842,0.07453036758992404,0.07117870700035413,0.9437851406752842,-0.0,-0.0,1.0,0.0
0.97580331628689,0.030869636379267932,0.035480214478827876,0.97580331628689,NORMAL,0.9703517236367932,0.0401513046705871,0.05484234339552926,0.9703517236367932,0.9607901161141781,0.05307869242005008,0.07667973973698762,0.9607901161141781,0.9775607748064942,0.030004481857666496,0.04057295819022924,0.9775607748064942,0.9731048117986838,0.03538826647452907,0.05070126617204238,0.9731048117986838,0.9437851406752842,0.07453036758992404,0.07117870700035413,0.9437851406752842,-0.0,-0.0,1.0,0.0
0.9752617949168844,0.03154004496318619,0.03502465405018796,0.9752617949168844,NORMAL,0.9698102022667878,0.04081259395404126,0.05364196065837905,0.9698102022667878,0.9602485947441725,0.0537257318280563,0.07511013948708162,0.9602485947441725,0.9742529761999184,0.034261959863540435,0.04648810195843685,0.9742529761999184,0.9752397117314262,0.03235469272018858,0.04576476284038832,0.9752397117314262,0.9407845466921364,0.07913581120399522,0.07964626926458121,0.9407845466921364,-0.0,-0.0,1.0,0.0
0.9776557458688032,0.02870887851882125,0.03170508476800037,0.9776557458688032,NORMAL,0.9698102022667878,0.04081259395404126,0.05284636600438628,0.9698102022667878,0.9592567440841784,0.05485657192562794,0.07412304330547502,0.9592567440841784,0.9763878761326608,0.03122216363648944,0.040079554614406425,0.9763878761326608,0.9752397117314262,0.03235469272018858,0.04634453536981135,0.9752397117314262,0.9407845466921364,0.07913581120399522,0.07964626926458121,0.9407845466921364,-0.0,-0.0,1.0,0.0
0.9788767981468884,0.02708939260694425,0.02821270450068666,0.9788767981468884,NORMAL,0.9698102022667878,0.04081259395404126,0.05284636600438628,0.9698102022667878,0.9525278716055513,0.06754207356394891,0.08796049898009692,0.9525278716055513,0.9763878761326608,0.031222163636488724,0.039325558359320646,0.9763878761326608,0.9716975963782728,0.03792372082267853,0.05543846243886887,0.9716975963782728,0.9407845466921364,0.07913581120399522,0.07964626926458121,0.9407845466921364,-0.0,-0.0,1.0,0.0
0.9772834195841517,0.029474064755322098,0.033617230651186325,0.9772834195841517,NORMAL,0.9738026469099299,0.03476393514622307,0.04273931399601774,0.9738026469099299,0.9519863502355457,0.06817480619094819,0.08802911025607177,0.9519863502355457,0.9789731053553916,0.0276611479645617,0.03520225299717237,0.9789731053553916,0.9696406994508673,0.04040266864446507,0.06197692020227947,0.9696406994508673,0.9433697759148674,0.07584210202066384,0.07715679376750234,0.9433697759148674,-0.0,-0.0,1.0,0.0
0.9785044718622368,0.027856178181705004,0.03257296728187543,0.9785044718622368,NORMAL,0.9758595438373352,0.03226172585916408,0.041695280477638395,0.9758595438373352,0.9486785516289697,0.07218250391233384,0.09036420117342023,0.9486785516289697,0.9795146267253972,0.026985910969520775,0.03196378506038911,0.9795146267253972,0.9712340780136043,0.03805532774410924,0.0578701224069887,0.9712340780136043,0.943820105204856,0.0753764369806834,0.07688308947607936,0.943820105204856,-0.0,-0.0,1.0,0.0
0.9791840027703166,0.026909966253359778,0.028922661796250405,0.9791840027703166,NORMAL,0.9763098731273236,0.031757468258672594,0.04026074685540961,0.9763098731273236,0.9475056529551362,0.07330985811834523,0.0939375666728578,0.9475056529551362,0.9786007790707403,0.028427793584426816,0.03201271271865087,0.9786007790707403,0.9756120380160778,0.03159225281067937,0.050215622704141545,0.9756120380160778,0.9414261542529372,0.07798605025032841,0.07426433081351155,0.9414261542529372,-0.0,-0.0,1.0,0.0
0.9821547473523788,0.02292696702715364,0.023589607033421504,0.9821547473523788,NORMAL,0.9770324425111686,0.031045992228504713,0.04033767637918033,0.9770324425111686,0.9478427069796498,0.07301773753868819,0.0933037913403651,0.9478427069796498,0.9791423004407457,0.027753249126544952,0.03185309909276076,0.9791423004407457,0.976603888676072,0.030416583347074966,0.05106795614293315,0.976603888676072,0.9433938336160093,0.07647248009017045,0.07272188319885874,0.9433938336160093,-0.0,-0.0,1.0,0.0
0.9838691673962182,0.021010092183298756,0.02319592463723252,0.9838691673962182,NORMAL,0.979167342443911,0.02799008819003871,0.03476507451032777,0.979167342443911,0.9464354915592389,0.0754287143690637,0.09298694748661698,0.9464354915592389,0.9798648698245906,0.027036619431480013,0.031560753729765,0.9798648698245906,0.9771454100460774,0.029744581594330296,0.049717953761525664,0.9771454100460774,0.9468258143164902,0.07310386689967352,0.07092101129564758,0.9468258143164902,-0.0,-0.0,1.0,0.0
0.9852465334155438,0.01941062591437832,0.023163334491872824,0.9852465334155438,NORMAL,0.9803883947219962,0.02636709436613046,0.03502293110711688,0.9803883947219962,0.9478427069796498,0.07301773753868819,0.08788298266560417,0.9478427069796498,0.9793233484545852,0.027712080649451586,0.03436860590172019,0.9793233484545852,0.9771454100460776,0.0297445815943303,0.048057648455289904,0.9771454100460776,0.9552691068389564,0.05874784106173744,0.045364393358677445,0.9552691068389564,-0.0,-0.0,1.0,0.0
0.9835751518474699,0.021563993545367702,0.026697077803195957,0.9835751518474699,NORMAL,0.9803883947219962,0.0263670943661301,0.03394239833030415,0.9803883947219962,0.9487565546343069,0.07166581772617728,0.08869747820762997,0.9487565546343069,0.9771884485218428,0.0307690981497016,0.04024399738079021,0.9771884485218428,0.9774824640705909,0.02942669236481354,0.04768108624550554,0.9774824640705909,0.9552691068389564,0.05874784106173744,0.045364393358677445,0.9552691068389564,-0.0,-0.0,1.0,0.0
0.9865458964295325,0.017546310359665005,0.02013524596721764,0.9865458964295325,NORMAL,0.9808387240119849,0.025857652183912887,0.03125794140020684,0.9808387240119849,0.9517272992163693,0.06795150006882436,0.08294913482644062,0.9517272992163693,0.9731960038787008,0.03685618694349694,0.049619510468307385,0.9731960038787008,0.9788598300899167,0.027849837018125347,0.044587074517014005,0.9788598300899167,0.9540480545608712,0.06028610306143876,0.04854906757743701,0.9540480545608712,-0.0,-0.0,1.0,0.0
0.9865458964295325,0.017546310359665005,0.0219309774446629,0.9865458964295325,NORMAL,0.9808387240119849,0.025857652183912887,0.03125794140020684,0.9808387240119849,0.9543125284391002,0.06458418168002712,0.08174566738566023,0.9543125284391002,0.9731960038787008,0.03685618694349694,0.04597127516431784,0.9731960038787008,0.9792453454492481,0.027452902011118514,0.043132653805379215,0.9792453454492481,0.9512956047684697,0.06283814873544125,0.047816024935832195,0.9512956047684697,-0.0,-0.0,1.0,0.0
0.9861603810702008,0.017950237608309695,0.02274974990959245,0.9861603810702008,NORMAL,0.9808387240119849,0.025857652183912887,0.02901147165372078,0.9808387240119849,0.9554854271129339,0.06343671585793396,0.07924580668867108,0.9554854271129339,0.9731960038787008,0.03685618694349694,0.04508539559219176,0.9731960038787008,0.9778679794299223,0.029030968459178085,0.04494347814916062,0.9778679794299223,0.9505730353846248,0.06350549470276029,0.04855552317066321,0.9505730353846248,-0.0,-0.0,1.0,0.0
0.9878317626382747,0.015784902725912715,0.021270873479583084,0.9878317626382747,NORMAL,0.9802972026419793,0.026534465692769734,0.026724230199072243,0.9802972026419793,0.9562079964967788,0.06276537431084364,0.07919739829782364,0.9562079964967788,0.9726544825086951,0.037521380396342834,0.0425599999067704,0.9726544825086951,0.9757330794971799,0.03208037370535357,0.0516980066810678,0.9757330794971799,0.9493519831065396,0.06502933295909458,0.048705609689916045,0.9493519831065396,-0.0,-0.0,1.0,0.0
0.988823613298269,0.014577851889991035,0.020868109833492823,0.988823613298269,NORMAL,0.9798468733519907,0.027043302452128395,0.029368916916683575,0.9798468733519907,0.9558709424722653,0.06306414420225548,0.07837127849337079,0.9558709424722653,0.9691123671555417,0.04305615142676008,0.04647821118629098,0.9691123671555417,0.9764126104052597,0.03113989140764206,0.051707595128025884,0.9764126104052597,0.9467667538838087,0.06837606206581807,0.053063240730104703,0.9467667538838087,-0.0,-0.0,1.0,0.0
0.988823613298269,0.014577851889991396,0.021257416242866138,0.988823613298269,NORMAL,0.979167342443911,0.02799008819003871,0.030120227814910114,0.979167342443911,0.954879091812271,0.06417962629522597,0.08057547810140787,0.954879091812271,0.9686620378655533,0.043551222718776796,0.04901371986755532,0.9686620378655533,0.9759622811152712,0.031644490010562965,0.052495118508524466,0.9759622811152712,0.9473082752538141,0.06774733805744511,0.05626630572506175,0.9473082752538141,-0.0,-0.0,1.0,0.0
0.9878317626382747,0.01578490272591308,0.022448799844894767,0.9878317626382747,NORMAL,0.9796176717338997,0.027482056828253106,0.028264161053237157,0.9796176717338997,0.9588715364554131,0.05832661349711423,0.06745564214787125,0.9588715364554131,0.9694978825148732,0.04266943614547478,0.04633920670511111,0.9694978825148732,0.9759622811152712,0.031644490010562965,0.052495118508524466,0.9759622811152712,0.9465857058699692,0.06840773909174966,0.054696976560261165,0.9465857058699692,-0.0,-0.0,1.0,0.0
0.9864543966189488,0.017393769559417478,0.023231060210389277,0.9864543966189488,NORMAL,0.9825884163159623,0.02349896161962438,0.024405570346439687,0.9825884163159623,0.9605429180234869,0.056293181119017675,0.06455100353668679,0.9605429180234869,0.9694978825148732,0.04266943614547478,0.04633920670511111,0.9694978825148732,0.9766418120233508,0.030703472962402188,0.048967294040840464,0.9766418120233508,0.9445718474183291,0.07040223257104578,0.053486735721982655,0.9445718474183291,-0.0,-0.0,1.0,0.0
0.9852333443408637,0.019038330668683125,0.026092378886584878,0.9852333443408637,NORMAL,0.9813673640378766,0.02512931354471592,0.026934134736756887,0.9813673640378766,0.9615347686834813,0.055162157866360084,0.06338566195411267,0.9615347686834813,0.9700394038848789,0.042009411537572885,0.04665590154076665,0.9700394038848789,0.9771833333933564,0.030031602892069895,0.04980560699123934,0.9771833333933564,0.9424369474855867,0.07324967583738339,0.05436262131247592,0.9424369474855867,-0.0,-0.0,1.0,0.0
0.9843194966862067,0.020496304311043212,0.0291588141547792,0.9843194966862067,NORMAL,0.982588416315962,0.023498961619625454,0.027681445337240502,0.982588416315962,0.9610844393934926,0.055647372375815136,0.06524172871578562,0.9610844393934926,0.9686321884644679,0.044526938990654456,0.0492268021485978,0.9686321884644679,0.9780971810480136,0.028593383592747653,0.04718339603239021,0.9780971810480136,0.9414450968255927,0.07433689144790163,0.05989495697619858,0.9414450968255927,-0.0,-0.0,1.0,0.0
0.9843194966862067,0.020496304311043212,0.0291588141547792,0.9843194966862067,NORMAL,0.9825884163159623,0.0234989616196251,0.02714828947228009,0.9825884163159623,0.95811369481143,0.059440512039066334,0.07135802125411357,0.95811369481143,0.9681818591744792,0.04502106124538416,0.048508276908589616,0.9681818591744792,0.9797685626160875,0.026464409538320265,0.04280418947139698,0.9797685626160875,0.9404230890339467,0.07522378261824883,0.05715246945404531,0.9404230890339467,-0.0,-0.0,1.0,0.0
0.9827261181234698,0.022905419236394914,0.033701028531873976,0.9827261181234698,NORMAL,0.984181794878699,0.021091156614931557,0.025638818333583537,0.984181794878699,0.9559787948786876,0.062357830804421525,0.07650337201228298,0.9559787948786876,0.9687233805444849,0.04436331210898618,0.04789658698567984,0.9687233805444849,0.9797685626160875,0.026464409538320265,0.04280418947139699,0.9797685626160875,0.9418954261155813,0.07387160385692297,0.05945495192486588,0.9418954261155813,-0.0,-0.0,1.0,0.0
0.9831764474134584,0.022393118881468638,0.0311537354027616,0.9831764474134584,NORMAL,0.983502263970619,0.022046409227827087,0.024335902043234346,0.983502263970619,0.9556417408541741,0.06265666213604557,0.07601100787990744,0.9556417408541741,0.9703947621125587,0.042282855544446434,0.04481586171960886,0.9703947621125587,0.980154077975419,0.026066540694361554,0.04187458345592585,0.980154077975419,0.9404230890339467,0.07522378261824986,0.05714384775640436,0.9404230890339467,-0.0,-0.0,1.0,0.0
0.9827261181234699,0.022905419236395635,0.034683655582529,0.9827261181234699,NORMAL,0.9844941146306134,0.02085109720503318,0.022555230208444105,0.9844941146306134,0.9541694037725398,0.06404923344247998,0.07887729185636448,0.9541694037725398,0.9718019775329697,0.03975726442578686,0.035875536737175605,0.9718019775329697,0.9792402303207617,0.02751025553719486,0.040401036057858,0.9792402303207617,0.9424369474855867,0.07324967583738372,0.055042756342639845,0.9424369474855867,-0.0,-0.0,1.0,0.0
0.9827261181234699,0.022905419236395635,0.03399242921508958,0.9827261181234699,NORMAL,0.9844941146306134,0.020851097205032098,0.02220705734993596,0.9844941146306134,0.9527920377532142,0.06553200010790991,0.07824518659200926,0.9527920377532142,0.9708101268729756,0.04091730923459474,0.03513203638362882,0.9708101268729756,0.9808336088834985,0.02511742882186964,0.03457337267013323,0.9808336088834985,0.9440303260483235,0.0710273932143612,0.05724371953412919,0.9440303260483235,-0.0,-0.0,1.0,0.0
0.9832676394934754,0.022224857413722484,0.03351612075354393,0.9832676394934754,NORMAL,0.9839525932606077,0.02153329455353696,0.022875827345536857,0.9839525932606077,0.9503980868012953,0.06819484053485993,0.07982145206287923,0.9503980868012953,0.9694029114525646,0.04343851974244887,0.044072361366062074,0.9694029114525646,0.9812839381734871,0.024607170644985906,0.032985108277983795,0.9812839381734871,0.9487453400753105,0.06461173356659712,0.04972054065788335,0.9487453400753105,-0.0,-0.0,1.0,0.0
0.9825881085853958,0.023178411560033665,0.03369915259319869,0.9825881085853958,NORMAL,0.983502263970619,0.022046409227827087,0.02431036096776564,0.983502263970619,0.9477046974415756,0.07108322338843365,0.08367594572022144,0.9477046974415756,0.96994443282257,0.042778994042465955,0.04395473553267151,0.96994443282257,0.9812839381734871,0.024607170644985906,0.03103860912468069,0.9812839381734871,0.9497673478669564,0.06370413112711149,0.050331153706603335,0.9497673478669564,-0.0,-0.0,1.0,0.0
0.9842594901534697,0.021030020867370883,0.027757384922930308,0.9842594901534697,NORMAL,0.9821248979512935,0.02363925228368177,0.027976994180204946,0.9821248979512935,0.9477046974415756,0.07108322338843365,0.07638969596677098,0.9477046974415756,0.9669736882405078,0.04664978519908012,0.048954688072202886,0.9669736882405078,0.9821197828228072,0.02369679516794305,0.03212639189022461,0.9821197828228072,0.950217677156945,0.06322906517574806,0.05130179453775211,0.950217677156945,-0.0,-0.0,1.0,0.0
0.9850953348027898,0.02011372257809211,0.027697653143138226,0.9850953348027898,NORMAL,0.9812110502966365,0.02508822897362158,0.030293132229896352,0.9812110502966365,0.9459629718817875,0.0726484039010307,0.0782469877020126,0.9459629718817875,0.965596322221182,0.048179729018129565,0.05149644428395317,0.965596322221182,0.9808987305447221,0.025326094707253794,0.03637658229458039,0.9808987305447221,0.9515950431762706,0.061747473115232196,0.0520145581959141,0.9515950431762706,-0.0,-0.0,1.0,0.0
0.9845538134327841,0.020796756120026457,0.027376958009739754,0.9845538134327841,NORMAL,0.9817525716666421,0.024409959404572044,0.027760403983617996,0.9817525716666421,0.9468688527922554,0.07191843769495958,0.07808425973193962,0.9468688527922554,0.965596322221182,0.048179729018129565,0.05149644428395317,0.965596322221182,0.9800628858954019,0.02623389880538908,0.038901968252511555,0.9800628858954019,0.9489016538165509,0.06465823978836106,0.056166983842767595,0.9489016538165509,-0.0,-0.0,1.0,0.0
0.9845538134327841,0.020796756120026457,0.02698765160036644,0.9845538134327841,NORMAL,0.9827444223266363,0.02321923875086675,0.027183199589608152,0.9827444223266363,0.9488827112438954,0.0699216007297918,0.07788114828635632,0.9488827112438954,0.9620542068680286,0.05363309745425932,0.06277593041498537,0.9620542068680286,0.9786855198760763,0.027815062249223216,0.04162200741512938,0.9786855198760763,0.9489016538165509,0.06465823978836037,0.05892412106882975,0.9489016538165509,-0.0,-0.0,1.0,0.0
0.9850953348027898,0.020113722578091388,0.028178203004914495,0.9850953348027898,NORMAL,0.9835802669759561,0.02230626669517425,0.02526067466750883,0.9835802669759561,0.950939608171301,0.06756330382399515,0.07784585757580105,0.950939608171301,0.9650548008511766,0.04883305302456284,0.05712717994530336,0.9650548008511766,0.9796773705360705,0.026631662877818228,0.03978479607432296,0.9796773705360705,0.94631642459382,0.06800421977591893,0.06748793816875016,0.94631642459382,-0.0,-0.0,1.0,0.0
0.9856368561727953,0.019429925513121976,0.025969140312445987,0.9856368561727953,NORMAL,0.9835802669759561,0.02230626669517425,0.023194832531133164,0.9835802669759561,0.9533335591232198,0.06489716465051125,0.07395192931001647,0.9533335591232198,0.9645132794811708,0.04948561350796105,0.05770785205341621,0.9645132794811708,0.9817342674634756,0.024096433549707627,0.034226272656417575,0.9817342674634756,0.9438984159407593,0.07000983352451848,0.06996105758385991,0.9438984159407593,-0.0,-0.0,1.0,0.0
0.9848010115234751,0.020347326575769417,0.024529712946235627,0.9848010115234751,NORMAL,0.9835802669759561,0.02230626669517425,0.02301288548162322,0.9835802669759561,0.9533335591232198,0.06489716465051125,0.07292252406570172,0.9533335591232198,0.9649636087711595,0.04899560613185081,0.057086554950786655,0.9649636087711595,0.9817342674634756,0.024096433549707627,0.034226272656417575,0.9817342674634756,0.9377460293617097,0.07732883084571211,0.07553275144420234,0.9377460293617097,-0.0,-0.0,1.0,0.0
0.9842594901534697,0.021030020867370523,0.026894486963157035,0.9842594901534697,NORMAL,0.9822029009566305,0.023898877265808815,0.025338064499060894,0.9822029009566305,0.9503329651400719,0.0695844493919362,0.07931345758577697,0.9503329651400719,0.9632922272030857,0.051051953471913,0.05685125779422758,0.9632922272030857,0.9817342674634756,0.024096433549707627,0.034226272656417575,0.9817342674634756,0.9349563327934866,0.07948751362330159,0.07466095288559796,0.9349563327934866,-0.0,-0.0,1.0,0.0
0.9837179687834641,0.02171195163593585,0.029915986061186745,0.9837179687834641,NORMAL,0.9812110502966365,0.02508822897362158,0.028512815831069096,0.9812110502966365,0.951168809789392,0.06874366587429129,0.07779018469397034,0.951168809789392,0.965349124130491,0.048613065538486634,0.057602905089028066,0.965349124130491,0.9817342674634756,0.024096433549707627,0.034226272656417575,0.9817342674634756,0.9307773878164849,0.08318028776883246,0.07348773861821245,0.9307773878164849,-0.0,-0.0,1.0,0.0
0.9837179687834641,0.021711951635936207,0.029815328183258917,0.9837179687834641,NORMAL,0.9807607210066478,0.02559822677113062,0.028058883897922122,0.9807607210066478,0.9497914437700664,0.07021438217691227,0.07955994272037853,0.9497914437700664,0.9649636087711595,0.04899560613185081,0.05883420364368797,0.9649636087711595,0.9817342674634758,0.024096433549707634,0.030987491613998667,0.9817342674634758,0.9287635293648449,0.08510453163302872,0.07588716838436685,0.9287635293648449,-0.0,-0.0,1.0,0.0
0.9832676394934756,0.02222485741372177,0.0311591538715909,0.9832676394934756,NORMAL,0.9807607210066478,0.02559822677113062,0.026611325278985007,0.9807607210066478,0.9447769913352785,0.0768471280747194,0.08997676981970425,0.9447769913352785,0.9649636087711595,0.04899560613185081,0.06016467414128871,0.9649636087711595,0.9810547365553961,0.02504715621734709,0.032516624992846466,0.9810547365553961,0.9220346568862178,0.09713983485482974,0.09460276734683365,0.9220346568862178,-0.0,-0.0,1.0,0.0
0.9858528687162065,0.018614001304809544,0.025506246683665815,0.9858528687162065,NORMAL,0.9795878223328143,0.026825404209685648,0.027613883297404725,0.9795878223328143,0.9380481188566514,0.08917142466161077,0.12532127235847063,0.9380481188566514,0.9656431396792391,0.04807790454211823,0.06485423432462774,0.9656431396792391,0.9815962579254015,0.024368976381115983,0.033195324317355245,0.9815962579254015,0.9180422122430757,0.10257991901058203,0.10506909474922183,0.9180422122430757,-0.0,-0.0,1.0,0.0
0.9848610180562122,0.019813273387627506,0.026709311729723934,0.9848610180562122,NORMAL,0.9782104563134887,0.028404932668671806,0.029136776257603574,0.9782104563134887,0.9397195004247253,0.08724149378072954,0.12169606205256316,0.9397195004247253,0.9639717581111652,0.05013741046832529,0.06254206964453247,0.9639717581111652,0.9824321025747217,0.023458095238866487,0.03220233575977292,0.9824321025747217,0.9143845077288404,0.1053310117609946,0.1040941286629549,0.9143845077288404,-0.0,-0.0,1.0,0.0
0.9841814871481326,0.020770087523611,0.03035961721534896,0.9841814871481326,NORMAL,0.9773746116641686,0.029307497439213594,0.028812831433216834,0.9773746116641686,0.9413128789874621,0.08505004712539671,0.12145790782179033,0.9413128789874621,0.9623003765430913,0.05218948608311818,0.06703480492750176,0.9623003765430913,0.9828824318647104,0.022946207702530207,0.031587724311745516,0.9828824318647104,0.9157917231492514,0.10305530372845918,0.09983687485000872,0.9157917231492514,-0.0,-0.0,1.0,0.0
0.9854025394262178,0.01912947894117746,0.028175929973987986,0.9854025394262178,NORMAL,0.9782104563134887,0.028404932668671088,0.026890306511117512,0.9782104563134887,0.9413128789874621,0.0850500471253981,0.11492857429614751,0.9413128789874621,0.9619148611837599,0.052569262437654835,0.06852033924574841,0.9619148611837599,0.9824969165053788,0.023346465384802284,0.032356719623865327,0.9824969165053788,0.9171661807336932,0.10233134410128306,0.10147137982435296,0.9171661807336932,-0.0,-0.0,1.0,0.0
0.9866235917043029,0.017484740606587872,0.0260503978195503,0.9866235917043029,NORMAL,0.9767381192318542,0.029886505972351197,0.029670483087089625,0.9767381192318542,0.9438981082101929,0.0817704923682884,0.11121914884239176,0.9438981082101929,0.960243479615686,0.054612354603576704,0.06594984261804701,0.960243479615686,0.9824969165053788,0.023346465384802284,0.03322454838864271,0.9824969165053788,0.9198595700934129,0.09964075424001054,0.10071506699814438,0.9198595700934129,-0.0,-0.0,1.0,0.0
0.989208820927034,0.013848774638029549,0.02106889168482966,0.989208820927034,NORMAL,0.9771884485218428,0.029380672699171904,0.030251537233233684,0.9771884485218428,0.9520043467081457,0.06783570107345994,0.0780406446664394,0.9520043467081457,0.9606938089056747,0.054127124706960364,0.06359100863512847,0.9606938089056747,0.9846318164381213,0.020256020707674703,0.027792431321232335,0.9846318164381213,0.9184822040740871,0.10101005540596211,0.10611944688236787,0.9184822040740871,-0.0,-0.0,1.0,0.0
0.9904298732051192,0.012190990076853224,0.016708682652738574,0.9904298732051192,NORMAL,0.9751315515944375,0.031892546278967794,0.03374865022325874,0.9751315515944375,0.9481277212156155,0.07228388960337061,0.08321882365573031,0.9481277212156155,0.9615296535549949,0.05326240751690648,0.0643080546988208,0.9615296535549949,0.9860091824574471,0.018654215947970246,0.0245564138736211,0.9860091824574471,0.9162018655791776,0.10241062183604277,0.103464936254504,0.9162018655791776,-0.0,-0.0,1.0,0.0
0.9912657178544394,0.01126126976197929,0.014808565664322131,0.9912657178544394,NORMAL,0.9787387886088141,0.027360700334882925,0.029467841677750593,0.9787387886088141,0.9464563396475416,0.07426025399465193,0.08620838571493251,0.9464563396475416,0.9615296535549949,0.05326240751690648,0.062187529128445294,0.9615296535549949,0.9847881301793616,0.020296453541172578,0.026760849147887802,0.9847881301793616,0.9178457116417729,0.1015020894369968,0.10231076472130571,0.9178457116417729,-0.0,-0.0,1.0,0.0
0.9898883518351136,0.012882175697107139,0.01795922059176803,0.9898883518351136,NORMAL,0.9807956855362197,0.024829534007344684,0.025718397270818014,0.9807956855362197,0.9464563396475414,0.07426025399465191,0.08598178875088842,0.9464563396475414,0.9610793242650062,0.05374850891089969,0.06261545940823336,0.9610793242650062,0.9860091824574471,0.01865421594797097,0.024687180534262155,0.9860091824574471,0.9178457116417729,0.1015020894369978,0.10008665574578714,0.9178457116417729,-0.0,-0.0,1.0,0.0
0.9893468304651083,0.013572597794326723,0.01866912413823409,0.9893468304651083,NORMAL,0.9795746332581344,0.026455144425298394,0.025743607037339376,0.9795746332581344,0.9459148182775358,0.07488461613745785,0.09082398207557935,0.9459148182775358,0.9599064255911725,0.05491543400218051,0.06317919939486562,0.9599064255911725,0.9850173317974528,0.01985364386341191,0.02578062934730722,0.9850173317974528,0.9195874372015609,0.10004616558036514,0.09972852315654794,0.9195874372015609,-0.0,-0.0,1.0,0.0
0.9886672995570286,0.01453818369469962,0.01983586852548602,0.9886672995570286,NORMAL,0.9795746332581342,0.026455144425298026,0.02825448865091433,0.9795746332581342,0.9475861998456098,0.0729106337326193,0.08742536873371601,0.9475861998456098,0.9599064255911725,0.05491543400218051,0.06467009487053128,0.9599064255911725,0.9843378008893732,0.020810586456911986,0.028074335216403516,0.9843378008893732,0.9178457116417729,0.10150208943699815,0.10008665574578714,0.9178457116417729,-0.0,-0.0,1.0,0.0
0.9879877686489489,0.015502429447049106,0.022456768766796295,0.9879877686489489,NORMAL,0.9802541641662141,0.025506884197785146,0.02396289089479808,0.9802541641662141,0.9496430967730152,0.0705624543645912,0.08510251392453869,0.9496430967730152,0.9608202732458297,0.05352731053511521,0.06531430962010944,0.9608202732458297,0.986923030112104,0.017191969347059244,0.026439156175479355,0.986923030112104,0.9178457116417729,0.10150208943699882,0.0952820294388476,0.9178457116417729,-0.0,-0.0,1.0,0.0
0.989208820927034,0.013848774638029549,0.021023198988112085,0.989208820927034,NORMAL,0.9809767335500592,0.024787739013808933,0.022651491277941003,0.9809767335500592,0.9501846181430206,0.06993283089838924,0.08314672173109888,0.9501846181430206,0.9624916548139035,0.05148099173178133,0.06683106401424359,0.9624916548139035,0.9864727008221154,0.017708674121380646,0.026590537847224097,0.9864727008221154,0.9199677596913695,0.10016383691351977,0.09343097847711293,0.9199677596913695,-0.0,-0.0,1.0,0.0
0.9882169702670399,0.015057038587221148,0.024585386167259853,0.9882169702670399,NORMAL,0.980976733550059,0.024787739013808208,0.022320339955490976,0.980976733550059,0.9501846181430206,0.06993283089838924,0.08472207935474764,0.9501846181430206,0.9607772347700645,0.05330025828598277,0.0703856927891763,0.9607772347700645,0.9870142221921209,0.01702257035888515,0.02361034810464914,0.9870142221921209,0.921584557585759,0.09916861995399885,0.09200037228342306,0.921584557585759,-0.0,-0.0,1.0,0.0
0.9882169702670399,0.015057038587220423,0.02501600193208792,0.9882169702670399,NORMAL,0.9802972026419793,0.02573722293695349,0.022554150545812956,0.9802972026419793,0.9501846181430206,0.06993283089838924,0.08472207935474764,0.9501846181430206,0.9617690854300586,0.05216584135239866,0.07028362130013394,0.9617690854300586,0.9870142221921209,0.01702257035888515,0.02361034810464914,0.9870142221921209,0.9180424422326053,0.10416000743299746,0.09993359248817715,0.9180424422326053,-0.0,-0.0,1.0,0.0
0.9860820703342975,0.018170311616622133,0.0321598368733684,0.9860820703342975,NORMAL,0.9793053519819851,0.026922310898070338,0.022646398550577276,0.9793053519819851,0.9497991027836892,0.0703000949006772,0.082919225856336,0.9497991027836892,0.9647696794132065,0.04736273644085786,0.06170177703557766,0.9647696794132065,0.9870142221921209,0.01702257035888515,0.023500329476913818,0.9870142221921209,0.9193338385024048,0.10314729456702372,0.10080245353720357,0.9193338385024048,-0.0,-0.0,1.0,0.0
0.9848610180562123,0.019813273387628227,0.03423350548699405,0.9848610180562123,NORMAL,0.9793053519819851,0.026922310898070338,0.022646398550577276,0.9793053519819851,0.9510904990534885,0.06919640187876545,0.08239998041389941,0.9510904990534885,0.9659907316912919,0.04578912968620798,0.05575558191382919,0.9659907316912919,0.9861003745374638,0.01848511198183845,0.022288988228260014,0.9861003745374638,0.9210052200704786,0.10128760478298625,0.101949295617005,0.9210052200704786,-0.0,-0.0,1.0,0.0
0.9848610180562123,0.019813273387628227,0.03423350548699405,0.9848610180562123,NORMAL,0.980976733550059,0.024787739013808208,0.01817602878271528,0.980976733550059,0.9510904990534885,0.06919640187876545,0.08198162283481665,0.9510904990534885,0.9699831763344338,0.03978608641970678,0.04835002028854155,0.9699831763344338,0.9865507038274522,0.017968962822808868,0.020008991356361146,0.9865507038274522,0.9235904492932097,0.09813436262654822,0.09662827871734933,0.9235904492932097,-0.0,-0.0,1.0,0.0
0.9848610180562123,0.019813273387628227,0.03423350548699405,0.9848610180562123,NORMAL,0.980976733550059,0.024787739013808208,0.01981794398499713,0.980976733550059,0.9523115513315737,0.06767482066328027,0.07803977138180833,0.9523115513315737,0.9735252916875868,0.03423413659318986,0.04199068605784826,0.9735252916875868,0.9851733378081268,0.019572633878916692,0.02291178662764326,0.9851733378081268,0.9206276714553366,0.10102679887631943,0.09741769444752588,0.9206276714553366,-0.0,-0.0,1.0,0.0
0.9869179149836176,0.017249827971975475,0.028955806517141552,0.9869179149836176,NORMAL,0.9801408889007388,0.025696077505374084,0.020753564429951875,0.9801408889007388,0.9537838884132083,0.06629094698508743,0.07498738225812952,0.9537838884132083,0.9728457607795074,0.03516954766394168,0.04554676630140976,0.9728457607795074,0.9830384378753844,0.022666311179819723,0.02894269317454031,0.9830384378753844,0.9226415299069765,0.09915744817644398,0.09782330366412148,0.9226415299069765,-0.0,-0.0,1.0,0.0
0.9878317626382747,0.01578490272591199,0.024771195978214373,0.9878317626382747,NORMAL,0.980976733550059,0.024787739013808208,0.018379582088276593,0.980976733550059,0.9552562254948427,0.06490247776095481,0.07432733687858974,0.9552562254948427,0.9698451667963597,0.04005305261031242,0.05412861056596603,0.9698451667963597,0.9830384378753844,0.022666311179819723,0.026730562065354707,0.9830384378753844,0.9238625821850617,0.09772636656372406,0.09615133353299293,0.9238625821850617,-0.0,-0.0,1.0,0.0
0.9886676072875947,0.014860714191362749,0.02362035518644684,0.9886676072875947,NORMAL,0.9818125781993791,0.02387781527400597,0.0188930748464076,0.9818125781993791,0.953783888413208,0.06629094698508707,0.07300486138901338,0.953783888413208,0.9691656358882799,0.04098066702115065,0.05175634734367887,0.9691656358882799,0.983423953234716,0.022265556147038627,0.026582478596415444,0.983423953234716,0.9178132406145143,0.1087753845756615,0.12304248199403542,0.9178132406145143,-0.0,-0.0,1.0,0.0
0.9886676072875947,0.014860714191362749,0.02217279656750972,0.9886676072875947,NORMAL,0.9839474781321214,0.02079074452696932,0.015323314849402692,0.9839474781321214,0.9543254097832138,0.06565580446195053,0.07045140715963473,0.9543254097832138,0.9708370174563535,0.0388933589161062,0.04838678045114396,0.9708370174563535,0.983423953234716,0.022265556147038987,0.02837349681543684,0.983423953234716,0.9187270882691715,0.10750638962695909,0.11821379167657925,0.9187270882691715,-0.0,-0.0,1.0,0.0
0.9896594579475891,0.013651689084696609,0.019546661483049402,0.9896594579475891,NORMAL,0.9856188597001951,0.018635221942428195,0.01463609182765752,0.9856188597001951,0.9533335591232196,0.06676657561613761,0.07022893802344858,0.9533335591232196,0.9668445728132117,0.04490566828532544,0.05543618602759683,0.9668445728132117,0.983423953234716,0.022265556147038987,0.02837349681543684,0.983423953234716,0.9177352376091772,0.10852530995692158,0.12238895876637768,0.9177352376091772,-0.0,-0.0,1.0,0.0
0.9892091286576005,0.014171481574398122,0.02006849414330092,0.9892091286576005,NORMAL,0.9849393287921157,0.019593606087479464,0.016057017375203996,0.9849393287921157,0.9466046866445925,0.07928434640696412,0.10138920563938525,0.9466046866445925,0.9668445728132117,0.0449056682853258,0.052894383339218136,0.9668445728132117,0.9828824318647104,0.022946207702530568,0.028589194674371148,0.9828824318647104,0.9212773529623306,0.10355270325772464,0.11332426208528679,0.9212773529623306,-0.0,-0.0,1.0,0.0
0.9875377470895266,0.0163426413195216,0.023784867656077145,0.9875377470895266,NORMAL,0.9849393287921157,0.019593606087479464,0.017896133062689626,0.9849393287921157,0.9436419088067195,0.08232361091959406,0.10572542200276795,0.9436419088067195,0.9682517882336227,0.042393570244027914,0.05111001797636096,0.9682517882336227,0.9837182765140304,0.02203286981466855,0.026699977704515845,0.9837182765140304,0.9242401308002041,0.1006658975705735,0.11119329932178346,0.9242401308002041,-0.0,-0.0,1.0,0.0
0.9879880763795152,0.015824738568646603,0.022343648379246205,0.9879880763795152,NORMAL,0.9856188597001954,0.018635221942428924,0.017589309260448212,0.9856188597001954,0.9421695717250849,0.08366554158940653,0.1068160831471358,0.9421695717250849,0.969472840511708,0.040807592884295474,0.050256275652070574,0.969472840511708,0.9842597978840361,0.021351115485807586,0.024443051096734628,0.9842597978840361,0.9228627647808783,0.10204162039772051,0.11543571772400066,0.9228627647808783,-0.0,-0.0,1.0,0.0
0.9875377470895266,0.0163426413195216,0.02423433884177176,0.9875377470895266,NORMAL,0.9861603810702008,0.01795023760831006,0.017033703570582637,0.9861603810702008,0.9434609679948843,0.08259056255143367,0.1082331964919783,0.9434609679948843,0.969472840511708,0.040807592884295474,0.050256275652070574,0.969472840511708,0.9854808501621213,0.01971109323597269,0.022277915488524664,0.9854808501621213,0.9221832338727987,0.10287583355335615,0.12056971669459224,0.9221832338727987,-0.0,-0.0,1.0,0.0
0.9875377470895266,0.0163426413195216,0.02384503243239845,0.9875377470895266,NORMAL,0.9847830150508752,0.019553279579088326,0.01832715313544519,0.9847830150508752,0.9501898404735114,0.0701413871788465,0.0903697501581001,0.9501898404735114,0.9707277766501688,0.039387978655686905,0.04854393403515882,0.9707277766501688,0.9871522317301952,0.017550276218154786,0.020040418405757803,0.9871522317301952,0.9306265263952649,0.08919696465003271,0.09561109067179589,0.9306265263952649,-0.0,-0.0,1.0,0.0
0.9892091286576005,0.014171481574397762,0.019639888067870866,0.9892091286576005,NORMAL,0.9839471704015551,0.02046975196751246,0.02136983823922941,0.9839471704015551,0.9501898404735114,0.07014138717884685,0.08933774497453452,0.9501898404735114,0.968696557349808,0.041508450548526386,0.052071455233608524,0.968696557349808,0.9867019024402065,0.018066941233982836,0.02124388584653819,0.9867019024402065,0.9390698189177311,0.0752527960081825,0.06505385513268053,0.9390698189177311,-0.0,-0.0,1.0,0.0
0.9886676072875947,0.014860714191362749,0.022682113149000867,0.9886676072875947,NORMAL,0.9844886917715606,0.019786973180130927,0.02078807029580085,0.9844886917715606,0.9516621775551459,0.0687648803283202,0.08867769959499472,0.9516621775551459,0.9681503676921299,0.04217048479404692,0.055606944445976796,0.9681503676921299,0.9867019024402065,0.018066941233982836,0.02193110886828336,0.9867019024402065,0.9396113402877366,0.07463378425066079,0.06541585962153375,0.9396113402877366,-0.0,-0.0,1.0,0.0
0.9881260859175891,0.015549183285293405,0.024839575314404044,0.9881260859175891,NORMAL,0.9828953132088238,0.022197662335739343,0.021219781895944628,0.9828953132088238,0.9516621775551459,0.06876488032831986,0.08894991214270143,0.9516621775551459,0.9664211681651541,0.04402473161282653,0.06011784478858863,0.9664211681651541,0.987152231730195,0.017550276218154783,0.020958493229145655,0.987152231730195,0.9372173893358178,0.07723191193621802,0.0701772112793377,0.9372173893358178,-0.0,-0.0,1.0,0.0
0.9876757566276007,0.016067286010883267,0.02549217463529661,0.9876757566276007,NORMAL,0.9838871638688181,0.02100326730304332,0.0211682071209047,0.9838871638688181,0.9526540282151399,0.06765838089940135,0.08799141314128778,0.9526540282151399,0.9672642183717959,0.043142474118974636,0.05814308331333813,0.9672642183717959,0.9854808501621211,0.01971109323597269,0.023684761163663873,0.9854808501621211,0.9386897264174521,0.07588829361866993,0.07199185251556599,0.9386897264174521,-0.0,-0.0,1.0,0.0
0.986004375059527,0.0182317920442947,0.030451315254909964,0.986004375059527,NORMAL,0.9847230085181382,0.02008730611771083,0.01812552201712048,0.9847230085181382,0.9543254097832141,0.06565580446195056,0.08478357630117224,0.9543254097832141,0.9655784283419284,0.045222998661615416,0.05676738313039617,0.9655784283419284,0.9842597978840361,0.021351115485806864,0.024839043160710096,0.9842597978840361,0.9386897264174523,0.07588829361866996,0.07080992585251136,0.9386897264174523,-0.0,-0.0,1.0,0.0
0.9851685304102069,0.019150563431815024,0.031063465200473955,0.9851685304102069,NORMAL,0.9841814871481326,0.020770087523611,0.019463062008322273,0.9841814871481326,0.9547109251425456,0.06528464355905893,0.0840538738624435,0.9547109251425456,0.9655784283419284,0.04522299866161506,0.05618261256192641,0.9655784283419284,0.9838094685940474,0.02186447994237714,0.023457738561039585,0.9838094685940474,0.9410836773693709,0.07328204956723709,0.0702359722416724,0.9410836773693709,-0.0,-0.0,1.0,0.0
0.9841766797502126,0.020348435968173265,0.03279065791354504,0.9841766797502126,NORMAL,0.9862383840755379,0.01821046390206971,0.017863183027389342,0.9862383840755379,0.9554334945263906,0.06461532215156933,0.08333670846141633,0.9554334945263906,0.9662204077779696,0.044659547320834186,0.05364282107318477,0.9662204077779696,0.9812242393713163,0.02545908772022626,0.02746348010236174,0.9812242393713163,0.9436939485952673,0.07118332784319162,0.06875622054836884,0.9436939485952673,-0.0,-0.0,1.0,0.0
0.9833408351008924,0.021263647836711686,0.035081763261917386,0.9833408351008924,NORMAL,0.9866887133655265,0.017694114768325633,0.015583186155490474,0.9866887133655265,0.9564253451863846,0.06349956803633508,0.08376463886938519,0.9564253451863846,0.965831569010368,0.045045313660071064,0.05517502014617678,0.965831569010368,0.9822160900313105,0.024270094235371947,0.026198551684877718,0.9822160900313105,0.9484089626222543,0.06477097419490566,0.060741117250398644,0.9484089626222543,-0.0,-0.0,1.0,0.0
0.982661304192813,0.022217939540528423,0.03546312075633961,0.982661304192813,NORMAL,0.9861471919955209,0.018379617411003624,0.01731003255606558,0.9861471919955209,0.9550479791670587,0.06498707404658505,0.0868997584640115,0.9550479791670587,0.969858431279744,0.0390082617997256,0.04885764160690075,0.969858431279744,0.9822160900313105,0.024270094235371947,0.026198551684877718,0.9822160900313105,0.9484089626222543,0.06477097419490566,0.060741117250398644,0.9484089626222543,-0.0,-0.0,1.0,0.0
0.9819387348089679,0.02294027287702846,0.03630045123994323,0.9819387348089679,NORMAL,0.9865327073548523,0.01797586360791298,0.01529179599604989,0.9865327073548523,0.9546624638077273,0.06535850476972152,0.0891323015463086,0.9546624638077273,0.9681726412498763,0.04110196522139288,0.0501203936548631,0.9681726412498763,0.9843509899640529,0.02118256751334003,0.025786251256373603,0.9843509899640529,0.94978632864158,0.06329478652057022,0.0607823812753097,0.94978632864158,-0.0,-0.0,1.0,0.0
0.9819387348089679,0.02294027287702846,0.035882093660860474,0.9819387348089679,NORMAL,0.9853116550767672,0.019619838384579258,0.016542333935079343,0.9853116550767672,0.955203985177733,0.06472217931397137,0.08788176360727916,0.955203985177733,0.967487252316727,0.04203143260871287,0.05410653555125814,0.967487252316727,0.9850305208721326,0.020225868512974584,0.024938793061568796,0.9850305208721326,0.9527570732236426,0.05954978091485533,0.05660729973130045,0.9527570732236426,-0.0,-0.0,1.0,0.0
0.9807176825308828,0.024570201564965432,0.03762140245164129,0.9807176825308828,NORMAL,0.9846321241686875,0.02057723654306909,0.017899413347636773,0.9846321241686875,0.9562259929693785,0.06380757921675317,0.09045763075730918,0.9562259929693785,0.9690943669015565,0.039680459707543594,0.05170423137269376,0.9690943669015565,0.9850305208721326,0.020225868512974584,0.02399682925639852,0.9850305208721326,0.953298594593648,0.05891157134186664,0.057010996619128326,0.953298594593648,-0.0,-0.0,1.0,0.0
0.9807176825308828,0.024570201564965432,0.037314578649399875,0.9807176825308828,NORMAL,0.9820468949459565,0.024178333962043295,0.01981995480740315,0.9820468949459565,0.9545115729255396,0.06559168226800761,0.09386680888131312,0.9545115729255396,0.9715089553616815,0.03687705309349587,0.048046576278916224,0.9715089553616815,0.9827094577970646,0.0242673713060175,0.03064033734479471,0.9827094577970646,0.9572910392367898,0.05304703041256867,0.048773572668617385,0.9572910392367898,-0.0,-0.0,1.0,0.0
0.9819387348089679,0.022940272877027743,0.03631270942568854,0.9819387348089679,NORMAL,0.9832679472240418,0.022545628848379913,0.0182679110529029,0.9832679472240418,0.9558889389448653,0.0641059882059341,0.09173554361866368,0.9558889389448653,0.9715089553616815,0.036877053093496946,0.04807429088096649,0.9715089553616815,0.9783314977945909,0.030812368135547406,0.038690103568589,0.9783314977945909,0.95812688388611,0.0521847643661259,0.047419594644579885,0.95812688388611,-0.0,-0.0,1.0,0.0
0.9810248871543107,0.024389616821975057,0.03874309929974108,0.9810248871543107,NORMAL,0.9792755025808997,0.028705696349338786,0.0218289767502638,0.9792755025808997,0.9558889389448653,0.0641059882059341,0.09398201336514972,0.9558889389448653,0.9701197154973616,0.03843453228088399,0.04956721251200732,0.9701197154973616,0.9783314977945909,0.030812368135546688,0.041692147585895456,0.9783314977945909,0.9597202624488467,0.0498864294944062,0.04609390397133088,0.9597202624488467,-0.0,-0.0,1.0,0.0
0.9810248871543107,0.02438961682197578,0.0386519360928723,0.9810248871543107,NORMAL,0.9809468841489736,0.026574236013809094,0.02077347467970723,0.9809468841489736,0.95383204201746,0.06648554432925281,0.09733188655586314,0.95383204201746,0.9718489150243373,0.036562636278380016,0.04711796534776364,0.9718489150243373,0.9771104455165057,0.03242626644240188,0.044019997359815655,0.9771104455165057,0.9571350332261158,0.053314452815330655,0.052142407749181,0.9571350332261158,-0.0,-0.0,1.0,0.0
0.9801890425049905,0.02529834121863063,0.03848182567294178,0.9801890425049905,NORMAL,0.9809468841489736,0.026574236013809094,0.020537512119565816,0.9809468841489736,0.9526109897393749,0.0680113575702177,0.09371908187292359,0.9526109897393749,0.9730804936151646,0.03495593561214251,0.046872516768107955,0.9730804936151646,0.9762746008671856,0.033324320809420396,0.04666505086761741,0.9762746008671856,0.9588064147941897,0.05127631239360818,0.050171579466947176,0.9588064147941897,-0.0,-0.0,1.0,0.0
0.9825829934569095,0.022436882386539334,0.033661280692320404,0.9825829934569095,NORMAL,0.9802673532408941,0.02752245242118318,0.021383659369724993,0.9802673532408941,0.9526109897393749,0.0680113575702177,0.09130569482683744,0.9526109897393749,0.9718489150243371,0.03656263627838001,0.04749853509437563,0.9718489150243371,0.9746032192991118,0.03543362273321847,0.04830810371641499,0.9746032192991118,0.95812688388611,0.05218476436612625,0.05222181469080787,0.95812688388611,-0.0,-0.0,1.0,0.0
0.9832625243649893,0.021482820543768412,0.032821895795367664,0.9832625243649893,NORMAL,0.9812592039008879,0.026336755205881208,0.022283495604517478,0.9812592039008879,0.951233623720049,0.06948566772570225,0.09414572021047321,0.951233623720049,0.9726919652309791,0.0356685249066462,0.046822843826140104,0.9726919652309791,0.9740616979291064,0.03610062827871287,0.048285647344576466,0.9740616979291064,0.95729103923679,0.05304703041256868,0.05304860863990761,0.95729103923679,-0.0,-0.0,1.0,0.0
0.9839420552730689,0.02052741855297589,0.031953587234561584,0.9839420552730689,NORMAL,0.9835802669759561,0.02230626669517461,0.01845341276765069,0.9835802669759561,0.9502417730600548,0.07058840001242844,0.09685553997419932,0.9502417730600548,0.973613690882659,0.03423487724018434,0.04251786283003805,0.973613690882659,0.973225853279786,0.036992551747842245,0.05140103925291874,0.973225853279786,0.9594259391695322,0.0501045699729755,0.050008060961721855,0.9594259391695322,-0.0,-0.0,1.0,0.0
0.9839420552730689,0.02052741855297589,0.033600677405683455,0.9839420552730689,NORMAL,0.9835802669759561,0.02230626669517389,0.018884028532478756,0.9835802669759561,0.9502417730600548,0.0705884000124281,0.09837370502509454,0.9502417730600548,0.9766100453318083,0.03027968535967646,0.03798101704902883,0.9766100453318083,0.9746032192991118,0.035433622733218116,0.04878441217796063,0.9746032192991118,0.9617470022446004,0.0462238493203358,0.04574186096022146,0.9617470022446004,-0.0,-0.0,1.0,0.0
0.9832625243649892,0.02148282054376913,0.03446898596648953,0.9832625243649892,NORMAL,0.9857151669086985,0.01921005224192636,0.01765071009445755,0.9857151669086985,0.9502417730600548,0.0705884000124281,0.10078709207118068,0.9502417730600548,0.9749242553019408,0.03240399789751701,0.03788518410993748,0.9749242553019408,0.9740616979291064,0.03610062827871323,0.05131714042423899,0.9740616979291064,0.9625953766663788,0.04513742620146271,0.04247020807053868,0.9625953766663788,-0.0,-0.0,1.0,0.0
0.9827210029949834,0.02216378736561351,0.03330145113750446,0.9827210029949834,NORMAL,0.9857151669086988,0.019210052241926366,0.01939001888523836,0.9857151669086988,0.9549567870870418,0.06412391726714343,0.09211428330398898,0.9549567870870418,0.9757673055085827,0.031503263187511774,0.038412080355658726,0.9757673055085827,0.9740616979291061,0.036100628278713215,0.052255382461684964,0.9740616979291061,0.9650342302216209,0.04301646521741815,0.043018501613328014,0.9650342302216209,-0.0,-0.0,1.0,0.0
0.9840983690143092,0.020567870688848484,0.030030075439949327,0.9840983690143092,NORMAL,0.9851736455386931,0.019894026154014352,0.02058869328345578,0.9851736455386931,0.9549567870870418,0.06412391726714343,0.09168366753916092,0.9549567870870418,0.9761561442761842,0.03110776238815597,0.03775631582670709,0.9761561442761842,0.9744472132884375,0.035709011465475594,0.05061855838478778,0.9744472132884375,0.9668100069327558,0.041516032226803605,0.04469411030802342,0.9668100069327558,-0.0,-0.0,1.0,0.0
0.9840983690143092,0.020567870688848484,0.030506383901494977,0.9840983690143092,NORMAL,0.983116748611288,0.022447283477526666,0.02284939708243043,0.983116748611288,0.9549567870870418,0.06412391726714343,0.09168366753916092,0.9549567870870418,0.9754273458459267,0.0318208137844889,0.04125333415187475,0.9754273458459267,0.9744472132884378,0.03570901146547525,0.05128406953008264,0.9744472132884378,0.9672642183717961,0.04101921218279435,0.04865802957907095,0.9672642183717961,-0.0,-0.0,1.0,0.0
0.9840983690143092,0.020567870688848484,0.030874964327768,0.9840983690143092,NORMAL,0.9809818486785454,0.025528068632424416,0.027160943657478627,0.9809818486785454,0.9532423670432026,0.06590477593016937,0.09556012501632945,0.9532423670432026,0.9754273458459267,0.0318208137844889,0.04125333415187475,0.9754273458459267,0.973767682380358,0.036644325731150985,0.05461731576381138,0.973767682380358,0.9642678639226466,0.0449013798334205,0.05516064100460351,0.9642678639226466,-0.0,-0.0,1.0,0.0
0.9840983690143092,0.020567870688848484,0.03217788061811719,0.9840983690143092,NORMAL,0.9839525932606079,0.021533294553536964,0.023548969273916753,0.9839525932606079,0.951865001023877,0.0673832389138136,0.09823577916573821,0.951865001023877,0.9754273458459267,0.0318208137844889,0.03970743506777488,0.9754273458459267,0.9760887454554262,0.032670058556073134,0.04691068888523776,0.9760887454554262,0.9612715094734976,0.04875863098353054,0.06416677011086949,0.9612715094734976,-0.0,-0.0,1.0,0.0
0.9854757350336348,0.018967399694073985,0.029445583269754053,0.9854757350336348,NORMAL,0.9818176933278653,0.024618770729008515,0.028843476796681103,0.9818176933278653,0.9542589519757959,0.06471372841593703,0.09426727384991375,0.9542589519757959,0.9771131358757944,0.02969434127354988,0.03655859260552995,0.9771131358757944,0.9790893394385739,0.027730927991981305,0.039943381602328805,0.9790893394385739,0.9591182052309901,0.05172432436260946,0.06959075382681598,0.9591182052309901,-0.0,-0.0,1.0,0.0
0.9810977750311614,0.025555057001637956,0.0395617901876129,0.9810977750311614,NORMAL,0.9834890748959392,0.022474575428951427,0.028843476796681103,0.9834890748959392,0.9530860533019623,0.06585794975753458,0.09243052143984924,0.9530860533019623,0.9767242971081929,0.030090816718605366,0.03771935443860582,0.9767242971081929,0.9778682871604888,0.029349980581563243,0.040043529196649996,0.9778682871604888,0.9599388737537258,0.051088686705014194,0.0690819346158555,0.9599388737537258,-0.0,-0.0,1.0,0.0
0.9810977750311614,0.025555057001637956,0.0395617901876129,0.9810977750311614,NORMAL,0.9847101271740245,0.02083727211084168,0.024920480764539316,0.9847101271740245,0.9544634193212879,0.0643751388313982,0.09297115583241264,0.9544634193212879,0.9759954986779353,0.030805069290702036,0.03577405296416722,0.9759954986779353,0.9774827718011573,0.029745578851461514,0.03951543200775401,0.9774827718011573,0.9602105845463461,0.050879691558231584,0.0689144712378885,0.9602105845463461,-0.0,-0.0,1.0,0.0
0.9804182441230818,0.026504130938055807,0.040351397931755906,0.9804182441230818,NORMAL,0.984259797884036,0.02135111548580686,0.024564701480578814,0.984259797884036,0.9561778393651269,0.06258895232863362,0.09052804084109349,0.9561778393651269,0.9781488029204425,0.02773710611535001,0.031676102377401705,0.9781488029204425,0.977933101091146,0.0292392741921915,0.03909678555760484,0.977933101091146,0.959938873753726,0.051088686705013854,0.0690819346158555,0.959938873753726,-0.0,-0.0,1.0,0.0
0.9783613471956765,0.029030767748232673,0.042062810689530175,0.9783613471956765,NORMAL,0.9842597978840361,0.021351115485807225,0.024134085715750743,0.9842597978840361,0.9566281686551156,0.06210974992935848,0.08704441495242138,0.9566281686551156,0.9781488029204425,0.02773710611535001,0.032010108452631476,0.9781488029204425,0.9770192534364888,0.030676639465985908,0.03976987075849867,0.9770192534364888,0.9607819239603677,0.050219062333020384,0.06717025817066524,0.9607819239603677,-0.0,-0.0,1.0,0.0
0.9778198258256708,0.02970404229352286,0.043313348628559636,0.9778198258256708,NORMAL,0.9842597978840361,0.021351115485807225,0.025977636398663323,0.9842597978840361,0.9573076995631954,0.061209883909105714,0.09128358444019137,0.9573076995631954,0.9781488029204425,0.02773710611535001,0.03019318601490549,0.9781488029204425,0.9744340242137577,0.034222257827220326,0.041570774057977614,0.9744340242137577,0.9600965350272184,0.05113447951627637,0.06823215089051515,0.9600965350272184,-0.0,-0.0,1.0,0.0
0.9774827718011573,0.03002195267670109,0.0418653871399314,0.9774827718011573,NORMAL,0.9833459502293789,0.022805464846808794,0.028589962277054907,0.9833459502293789,0.9573076995631954,0.06120988390910536,0.0927606250689937,0.9573076995631954,0.9764630128905751,0.02986931825805553,0.035973720857027484,0.9764630128905751,0.9697190101867709,0.040976747670740346,0.052942443575902214,0.9697190101867709,0.9617036496120478,0.048817743722243546,0.06253087280125677,0.9617036496120478,-0.0,-0.0,1.0,0.0
0.9770972564418259,0.03041712077397113,0.0423572690203625,0.9770972564418259,NORMAL,0.9849393287921157,0.020394624128418228,0.024298364520938667,0.9849393287921157,0.95525080263579,0.06359961172890016,0.09573951257817641,0.95525080263579,0.9764630128905751,0.02986931825805553,0.03690103322030156,0.9764630128905751,0.9667482656047083,0.04485209666030568,0.05743045212035352,0.9667482656047083,0.957546666977507,0.05358872342964739,0.0684824333583113,0.957546666977507,-0.0,-0.0,1.0,0.0
0.9750403595144204,0.03292656605682302,0.04927179835090428,0.9750403595144204,NORMAL,0.9856188597001954,0.019436792623007636,0.023144082523892443,0.9856188597001954,0.9564237013096235,0.062449654298386136,0.09757626498824092,0.9564237013096235,0.9769172243296154,0.029361735052558843,0.037888951158682516,0.9769172243296154,0.9688831655374507,0.041860211330841286,0.053935736470185465,0.9688831655374507,0.9607819239603677,0.05021906233302074,0.06459075553683258,0.9607819239603677,-0.0,-0.0,1.0,0.0
0.9724551302916895,0.03645868886988476,0.05592400200043089,0.9724551302916895,NORMAL,0.9839474781321215,0.02159095592911421,0.02646017029470822,0.9839474781321215,0.9548303227468867,0.06471858097973812,0.101077413709271,0.9548303227468867,0.9776460227598728,0.02864568828185685,0.035937831917614724,0.9776460227598728,0.9672117839693769,0.04393792337690228,0.05934434827549343,0.9672117839693769,0.9620844529566308,0.04907010189471879,0.06544663912594134,0.9620844529566308,-0.0,-0.0,1.0,0.0
0.9741265118597633,0.03435605776383155,0.05143126671746161,0.9741265118597633,NORMAL,0.9829556274721274,0.02278483444266312,0.025654643002527705,0.9829556274721274,0.9562076887662125,0.06323106887137657,0.10568390825780419,0.9562076887662125,0.9754927185173653,0.03171000696272953,0.03965372802689736,0.9754927185173653,0.9672117839693769,0.04393792337690228,0.057691505905293726,0.9672117839693769,0.9616302415175907,0.04956025236174915,0.06276092244527125,0.9616302415175907,-0.0,-0.0,1.0,0.0
0.9717325609078444,0.03716259168078603,0.05717120582219502,0.9717325609078444,NORMAL,0.9821197828228072,0.023696795167942687,0.027738513177069657,0.9821197828228072,0.9562076887662125,0.06323106887137657,0.10568390825780419,0.9562076887662125,0.9738856039325359,0.034090525771926304,0.04771223053600111,0.9738856039325359,0.9672117839693769,0.04393792337690157,0.05603856727881872,0.9672117839693769,0.9632373561024199,0.0472369179518846,0.05578771789588259,0.9632373561024199,-0.0,-0.0,1.0,0.0
0.9724120918159241,0.036229700192198476,0.05526561292692225,0.9724120918159241,NORMAL,0.9825701121127959,0.023185186575288255,0.027415132686811963,0.9825701121127959,0.9570435334155325,0.062378784750875445,0.1032875418900334,0.9570435334155325,0.9755713939624036,0.03197151121621437,0.043829803765433745,0.9755713939624036,0.9660388852955434,0.045125035338182344,0.05628447226948125,0.9660388852955434,0.9614806156671166,0.048880283417858314,0.0544997504244604,0.9614806156671166,-0.0,-0.0,1.0,0.0
0.9736331440940096,0.03462871883296967,0.0539796443668428,0.9736331440940096,NORMAL,0.9835619627727898,0.02199219799123035,0.02477158515469744,0.9835619627727898,0.9563209640316876,0.06305108812017811,0.10322032239225999,0.9563209640316876,0.9768029725532311,0.03035251422001639,0.04127944140623451,0.9768029725532311,0.9637178222204752,0.049026750679189005,0.06126344581259316,0.9637178222204752,0.9603199874817251,0.049824882427356575,0.0515294250524734,0.9603199874817251,-0.0,-0.0,1.0,0.0
0.9729536131859299,0.035563963510128686,0.05626980840471564,0.9729536131859299,NORMAL,0.9835619627727901,0.021992197991230356,0.025202200919525512,0.9835619627727901,0.9539270130797688,0.06573124535997306,0.10653849142196663,0.9539270130797688,0.9780345511440582,0.02872933289937521,0.042291041575382514,0.9780345511440582,0.9672599375736286,0.04354637511462176,0.04965260926474133,0.9672599375736286,0.9615029973510227,0.048647246128582636,0.05288665167460481,0.9615029973510227,-0.0,-0.0,1.0,0.0
0.970559662234011,0.038363934147674465,0.062060565306834334,0.970559662234011,NORMAL,0.9841034841427955,0.021310533395188895,0.02675904215788389,0.9841034841427955,0.9546065439878485,0.06483674760805722,0.10327629891016511,0.9546065439878485,0.9771915009374164,0.029634679801276237,0.045416524440976686,0.9771915009374164,0.9672599375736286,0.04354637511462176,0.04907283673531832,0.9672599375736286,0.9615029973510227,0.048647246128582636,0.05511454344788261,0.9615029973510227,-0.0,-0.0,1.0,0.0
0.9717325609078447,0.037162591680786033,0.06015246653490654,0.9717325609078447,NORMAL,0.9835619627727901,0.021992197991230356,0.028485888558458995,0.9835619627727901,0.955148065357854,0.06420016776826247,0.10006014660744873,0.955148065357854,0.976737289498376,0.030142286378683204,0.04650636895200801,0.976737289498376,0.9672599375736286,0.043546375114621054,0.05031718185789008,0.9672599375736286,0.9611141585834211,0.04902933965433172,0.05589950957992253,0.9611141585834211,-0.0,-0.0,1.0,0.0
0.9729536131859299,0.03556396351012797,0.05725887574707951,0.9729536131859299,NORMAL,0.9825701121127959,0.023185186575288615,0.030906643635381426,0.9825701121127959,0.9572829652905964,0.06128973821740892,0.09485044794589835,0.9572829652905964,0.9745839852558688,0.033200333593093684,0.05158925845593371,0.9745839852558688,0.9702306821556911,0.03966482540304577,0.045701710728319606,0.9702306821556911,0.9577778444716162,0.05316397738713421,0.06046178324120833,0.9577778444716162,-0.0,-0.0,1.0,0.0
0.9750105101133352,0.03306575052075873,0.051367130152845,0.9750105101133352,NORMAL,0.9813490598347108,0.024815896935030973,0.03146916370736628,0.9813490598347108,0.9586603313099221,0.059792998518382955,0.09319549114479457,0.9586603313099221,0.9719764695743213,0.036746484311688324,0.054212509712664614,0.9719764695743213,0.9702306821556911,0.03966482540304577,0.04963933317947985,0.9702306821556911,0.9560920544417485,0.05520493936522471,0.06173288152399157,0.9560920544417485,-0.0,-0.0,1.0,0.0
0.9763878761326608,0.03149822789053976,0.05018533989380951,0.9763878761326608,NORMAL,0.9825701121127959,0.023185186575288255,0.028876247456090826,0.9825701121127959,0.957668480649928,0.060915505110925354,0.09554363464799924,0.957668480649928,0.9698231653318138,0.039774312084051494,0.060615374078973674,0.9698231653318138,0.9680957822229487,0.04266596842571486,0.05269114202865571,0.9680957822229487,0.9590884088908977,0.05139024918766315,0.055486240015926745,0.9590884088908977,-0.0,-0.0,1.0,0.0
0.9749155390510263,0.03297221250363854,0.0537514606212736,0.9749155390510263,NORMAL,0.9821197828228072,0.023696795167942687,0.029158395788476624,0.9821197828228072,0.957668480649928,0.060915505110925354,0.09471164859611877,0.957668480649928,0.9686401554625161,0.04097400682311727,0.06307041507602673,0.9686401554625161,0.967554260852943,0.04332420848015205,0.05479389101394492,0.967554260852943,0.9573126321797629,0.0528591702333308,0.053512199389922126,0.9573126321797629,-0.0,-0.0,1.0,0.0
0.9739236883910323,0.03414314042789481,0.05483736106385348,0.9739236883910323,NORMAL,0.9791191888396593,0.028664111414981895,0.03679848010911145,0.9791191888396593,0.9593829006937672,0.059116363376249245,0.09367882872787839,0.9593829006937672,0.9677971052558745,0.04185951468835812,0.06350809796669374,0.9677971052558745,0.9661768948336175,0.044859886153723764,0.058008112216441296,0.9661768948336175,0.9573126321797629,0.0528591702333308,0.05126033781013024,0.9573126321797629,-0.0,-0.0,1.0,0.0
0.9725463223717065,0.03570273611127921,0.05718881980019827,0.9725463223717065,NORMAL,0.9791191888396595,0.02866411141498191,0.03722325753356236,0.9791191888396595,0.9569889497418483,0.06181595214158123,0.09536847324584063,0.9569889497418483,0.9690286838467018,0.04026663166585624,0.05755874245937029,0.9690286838467018,0.9667184162036229,0.04420351239568921,0.05590936352889503,0.9667184162036229,0.9582343578314428,0.05146579715889956,0.04441767203172582,0.9582343578314428,-0.0,-0.0,1.0,0.0
0.972160807012375,0.03609353598567404,0.0572847096166539,0.972160807012375,NORMAL,0.9804965548589851,0.027083408051849077,0.03406204681176106,0.9804965548589851,0.9549750912902083,0.06384946897078535,0.09606965217624558,0.9549750912902083,0.972364997958507,0.03603487083309601,0.05145117139287617,0.972364997958507,0.9667184162036229,0.04420351239568921,0.057087289894206715,0.9667184162036229,0.9573126321797629,0.0528591702333308,0.047980935606239145,0.9573126321797629,-0.0,-0.0,1.0,0.0
0.9744818700874431,0.03212478453986319,0.05006665602016569,0.9744818700874431,NORMAL,0.9804965548589851,0.027083408051849077,0.03453835527330671,0.9804965548589851,0.9533037097221344,0.06585672916984162,0.09927748901636112,0.9533037097221344,0.972364997958507,0.03603487083309601,0.05145117139287617,0.972364997958507,0.9671039315629544,0.04381829427990646,0.05596913189421659,0.9671039315629544,0.9616959245724453,0.047933434328870816,0.04665748295183636,0.9616959245724453,-0.0,-0.0,1.0,0.0
0.9738023391793634,0.03306263323792213,0.049937546070808414,0.9738023391793634,NORMAL,0.9784396579315798,0.029609040778695233,0.03846496326522485,0.9784396579315798,0.9510204627923409,0.06807433280726961,0.09457349024052605,0.9510204627923409,0.972364997958507,0.03603487083309637,0.0535580296175582,0.972364997958507,0.9686973101256913,0.041483059471917806,0.056084615113761366,0.9686973101256913,0.9658529072069861,0.04311541751399907,0.0420869174708354,0.9658529072069861,-0.0,-0.0,1.0,0.0
0.9732608178093578,0.03373037646993117,0.051348432184819284,0.9732608178093578,NORMAL,0.9776038132822599,0.030510799959814597,0.038984040679238094,0.9776038132822599,0.9502978934084959,0.06873747962350554,0.09339392051551758,0.9502978934084959,0.9732867236101869,0.03460207460993019,0.04983781918992593,0.9732867236101869,0.9712825393484222,0.03797870793469053,0.051653168199800946,0.9712825393484222,0.9680062114494935,0.04010813010137892,0.03514630106831627,0.9680062114494935,-0.0,-0.0,1.0,0.0
0.9746381838286836,0.032166771113691504,0.04698509702199047,0.9746381838286836,NORMAL,0.9789811793015852,0.028935266264375203,0.03740461767813539,0.9789811793015852,0.9520396189682839,0.06715674973802095,0.09270974072060197,0.9520396189682839,0.9739721125433359,0.03366145205711748,0.04479267501797588,0.9739721125433359,0.9716195933729358,0.03766570625562689,0.05117995550100863,0.9716195933729358,0.9680062114494935,0.04010813010137892,0.03159067684298466,0.9680062114494935,-0.0,-0.0,1.0,0.0
0.9766520422803237,0.030020524169455713,0.04307037140456753,0.9766520422803237,NORMAL,0.9789811793015852,0.028935266264375203,0.038655155617164844,0.9789811793015852,0.9544335699202027,0.06448611913935082,0.08774149137619792,0.9544335699202027,0.9699452502739601,0.03974769714684235,0.055923209101527295,0.9699452502739601,0.973940656448004,0.03370301055462247,0.045257693985292176,0.973940656448004,0.9692377900403208,0.03851265209151237,0.029018128020089563,0.9692377900403208,-0.0,-0.0,1.0,0.0
0.9754309900022382,0.0316325062783476,0.04413364430731642,0.9754309900022382,NORMAL,0.9717107854529528,0.04273893984340616,0.07020472964247482,0.9717107854529528,0.9549750912902083,0.06384946897078535,0.08552587412387146,0.9549750912902083,0.9673377345924126,0.043258473839168816,0.06148541129086078,0.9673377345924126,0.9713554272252729,0.03722888076333106,0.05270858269082914,0.9713554272252729,0.9701514802689823,0.03772725508849677,0.027412856129033585,0.9701514802689823,-0.0,-0.0,1.0,0.0
0.9761105209103179,0.03069201677980054,0.042471736037652294,0.9761105209103179,NORMAL,0.9726246331076097,0.04132103347466524,0.06943323158731061,0.9726246331076097,0.9545895759308768,0.06422132657191,0.08651651987985391,0.9545895759308768,0.9703641957650703,0.03837069299199442,0.04973658474460124,0.9703641957650703,0.9701343749471877,0.03882263996518897,0.05510684573741794,0.9701343749471877,0.9687622404046626,0.0392811898663894,0.025840196670435234,0.9687622404046626,-0.0,-0.0,1.0,0.0
0.9761105209103179,0.03069201677980054,0.046199287931822555,0.9761105209103179,NORMAL,0.9712472670882841,0.0428682521226998,0.06994789252883694,0.9712472670882841,0.955810628208962,0.06268713875110252,0.08467918185697612,0.955810628208962,0.9667915449347345,0.04391852506049171,0.0589981078889594,0.9667915449347345,0.9681205164955476,0.040935432624605854,0.05821098258430075,0.9681205164955476,0.9687622404046626,0.0392811898663894,0.025840196670435234,0.9687622404046626,-0.0,-0.0,1.0,0.0
0.9766520422803237,0.030020524169454995,0.04451813422796504,0.9766520422803237,NORMAL,0.9712472670882841,0.04286825212270086,0.0694715840672913,0.9712472670882841,0.9618599697795094,0.05083400584554158,0.058247879548728336,0.9618599697795094,0.9637650837620768,0.048770002695440226,0.06309040675725637,0.9637650837620768,0.9697918980636215,0.03885044581738407,0.056230909058259386,0.9697918980636215,0.9687622404046626,0.0392811898663894,0.025840196670435234,0.9687622404046626,-0.0,-0.0,1.0,0.0
0.9773315731884031,0.02907768148233681,0.04097784737007533,0.9773315731884031,NORMAL,0.972918648656358,0.040779413757164526,0.06639085880122032,0.972918648656358,0.963453348342246,0.04852381899222146,0.05533404785486595,0.963453348342246,0.9653721983469062,0.04643983421988087,0.06053085508342793,0.9653721983469062,0.9690693286797765,0.03955048875525089,0.05821501047634159,0.9690693286797765,0.9704480304345301,0.03718295815144009,0.022441581787447425,0.9704480304345301,-0.0,-0.0,1.0,0.0
0.9763397225284092,0.030255632682417415,0.041766467326013704,0.9763397225284092,NORMAL,0.972082804007038,0.04166619729384958,0.0707240948545167,0.972082804007038,0.9642891929915662,0.04765148891898803,0.05341320488334922,0.9642891929915662,0.9646868094137567,0.04736265283825238,0.061485354689209994,0.9646868094137567,0.9673979471117027,0.0416326121224312,0.06414612655283826,0.9673979471117027,0.9704480304345301,0.03718295815144009,0.023444610992942167,0.9704480304345301,-0.0,-0.0,1.0,0.0
0.9763397225284092,0.030255632682417415,0.04046355103566451,0.9763397225284092,NORMAL,0.9717457499825245,0.041977973597213725,0.06841660422762222,0.9717457499825245,0.9629118269722404,0.04917537874613342,0.0567653957869507,0.9629118269722404,0.9656872105104753,0.046212591810286516,0.05827256740163243,0.9656872105104753,0.966947617821714,0.04212739899313915,0.06654840608165638,0.966947617821714,0.9708368692021317,0.03679202547518883,0.025909468334428424,0.9708368692021317,-0.0,-0.0,1.0,0.0
0.9763397225284092,0.030255632682417415,0.041316327217239934,0.9763397225284092,NORMAL,0.9724683193663696,0.04127764110481472,0.06744277166867794,0.9724683193663696,0.9634533483422459,0.04852381899222146,0.05462068099786318,0.9634533483422459,0.9666876116071934,0.045060046213617304,0.05469868967991774,0.9666876116071934,0.9630709923291837,0.04675738526630439,0.07267303499175722,0.9630709923291837,0.9711768288647876,0.03647781417950189,0.0242216866008445,0.9711768288647876,-0.0,-0.0,1.0,0.0
0.9796475211349851,0.025974996253393744,0.03408089526117476,0.9796475211349851,NORMAL,0.9724683193663696,0.04127764110481472,0.06701215590384987,0.9724683193663696,0.9634533483422459,0.04852381899222146,0.05551633067145485,0.9634533483422459,0.9666876116071934,0.045060046213617304,0.051769845178576246,0.9666876116071934,0.9640628429891778,0.04561326214548497,0.07060719285538154,0.9640628429891778,0.9702551032131075,0.037905578912912165,0.0239175815973093,0.9702551032131075,-0.0,-0.0,1.0,0.0
0.9796475211349851,0.025974996253393744,0.03408089526117476,0.9796475211349851,NORMAL,0.9745252162937749,0.038792831668320066,0.06438287167860221,0.9745252162937749,0.9607599589825263,0.05151226380194634,0.05950717983877098,0.9607599589825263,0.9655046017378955,0.04624907447471404,0.053775903589565716,0.9655046017378955,0.961369453629458,0.04861190609031366,0.07684680516967721,0.961369453629458,0.9672286420404497,0.0427942323869014,0.027708580954850376,0.9672286420404497,-0.0,-0.0,1.0,0.0
0.9796475211349851,0.025974996253393744,0.03408089526117476,0.9796475211349851,NORMAL,0.9752047472018543,0.037858248674331574,0.06453150597190518,0.9752047472018543,0.9590455389386873,0.05332786496432281,0.06425287580626587,0.9590455389386873,0.9655046017378958,0.0462490744747137,0.05621529888458364,0.9655046017378958,0.9639546828521891,0.045154842548564146,0.07076510816347542,0.9639546828521891,0.9628129410034723,0.049180980346278845,0.034443864278721904,0.9628129410034723,-0.0,-0.0,1.0,0.0
0.9826182657170475,0.021987204868844482,0.027942004788120024,0.9826182657170475,NORMAL,0.9738273811825288,0.03941477855703583,0.06592397273660383,0.9738273811825288,0.9590455389386873,0.05332786496432281,0.06636101760705983,0.9590455389386873,0.9668938416022156,0.044710762724257086,0.05387164069267153,0.9668938416022156,0.9659685413038291,0.043060671072566226,0.06781516608609092,0.9659685413038291,0.9610837414764964,0.051011562099832895,0.034420580613117896,0.9610837414764964,-0.0,-0.0,1.0,0.0
0.9800330364943166,0.025576986519568832,0.03385265885177654,0.9800330364943166,NORMAL,0.9742777104725173,0.03891494041424025,0.06609129558991265,0.9742777104725173,0.9602665912167724,0.05177189064626654,0.06289561159889297,0.9602665912167724,0.967622640032473,0.04401407828664118,0.054265655976925994,0.967622640032473,0.9651326966545091,0.043938637861959874,0.06864196003519067,0.9651326966545091,0.9584762257949488,0.05445765347740325,0.038860260197771536,0.9584762257949488,-0.0,-0.0,1.0,0.0
0.9810248871543107,0.024389616821976136,0.03249175597251578,0.9810248871543107,NORMAL,0.9734418658231971,0.03980466116200381,0.06999391587838094,0.9734418658231971,0.9632671851999203,0.046975543014196784,0.055694413457805056,0.9632671851999203,0.9686230411291913,0.04285676055470293,0.05045990575636847,0.9686230411291913,0.9668040782225829,0.041865712020207,0.0668077679483046,0.9668040782225829,0.9589304372339892,0.05397158447619271,0.03885801611038769,0.9589304372339892,-0.0,-0.0,1.0,0.0
0.9777170885477348,0.028681884552118807,0.03599766682353224,0.9777170885477348,NORMAL,0.9742777104725173,0.03891494041424025,0.06888073689532027,0.9742777104725173,0.9602665912167724,0.05177189064626619,0.05993358294557504,0.9602665912167724,0.9665918218288302,0.04496499293449329,0.05330473619833941,0.9665918218288302,0.9663537489325944,0.042360062625138015,0.06657560435347036,0.9663537489325944,0.9585904775713334,0.054275306199280095,0.04212026754557455,0.9585904775713334,-0.0,-0.0,1.0,0.0
0.9733391285452613,0.0351726118968164,0.03878098839985084,0.9733391285452613,NORMAL,0.974819231842523,0.038249342380669515,0.06763019895629081,0.974819231842523,0.9602665912167724,0.051771890646265833,0.05819776029793508,0.9602665912167724,0.9648626223018545,0.04681100721769249,0.05651628621143197,0.9648626223018545,0.964218848999852,0.04534253288524663,0.0702048323792262,0.964218848999852,0.9565592582709722,0.05633558767828272,0.043934842491238114,0.9565592582709722,-0.0,-0.0,1.0,0.0
0.9706457391855415,0.03823152495766544,0.043305967211582634,0.9706457391855415,NORMAL,0.975655076491843,0.037356933611301636,0.06333827225844922,0.975655076491843,0.9612885990084183,0.05083793367455971,0.057363340866971105,0.9612885990084183,0.9640195720952126,0.047687679842190585,0.05672171026205134,0.9640195720952126,0.964218848999852,0.04534253288524663,0.07065999844739193,0.964218848999852,0.9474694481779964,0.07126576720058436,0.06553699283883922,0.9474694481779964,-0.0,-0.0,1.0,0.0
0.9673379405789656,0.042429304011202575,0.04972988562329555,0.9673379405789656,NORMAL,0.9763346073999228,0.03642020507171778,0.061734314871247975,0.9763346073999228,0.9627609360900529,0.04941328520097831,0.05683789770782184,0.9627609360900529,0.9652025819645104,0.046502417923595385,0.05603562671344524,0.9652025819645104,0.9630681407134809,0.04629190654042708,0.07071994646042334,0.9630681407134809,0.9454657697859631,0.07300305047117592,0.06457891117936922,0.9454657697859631,-0.0,-0.0,1.0,0.0
0.9637958252258123,0.04791423931717168,0.057545360526658866,0.9637958252258123,NORMAL,0.9763346073999228,0.03642020507171778,0.061734314871247975,0.9763346073999228,0.9651548870419715,0.04666475751586822,0.05159899514811771,0.9651548870419715,0.9646563923068323,0.047159067766209775,0.06005153049478628,0.9646563923068323,0.9638817949753384,0.045650266257969765,0.07137692679209019,0.9638817949753384,0.9424694153368138,0.07669029217972478,0.06489522100639712,0.9424694153368138,-0.0,-0.0,1.0,0.0
0.9637958252258123,0.04791423931717168,0.056725438352457476,0.9637958252258123,NORMAL,0.975655076491843,0.03735693361130128,0.061155064813116944,0.975655076491843,0.9658344179500513,0.045745219405090826,0.05273487718894433,0.9658344179500513,0.9636559912101141,0.04830681603400364,0.06400922034341816,0.9636559912101141,0.9671895935819146,0.04147952445683609,0.06384190330646188,0.9671895935819146,0.9417840264036644,0.07756761907814015,0.06444718034512469,0.9417840264036644,-0.0,-0.0,1.0,0.0
0.964475356133892,0.04699696863945825,0.056740880453763555,0.964475356133892,NORMAL,0.975655076491843,0.03735693361130128,0.060043064366920876,0.975655076491843,0.9675488379938902,0.04390198552303896,0.054075696417561867,0.9675488379938902,0.9656872105104751,0.04621259181028651,0.0604393128683169,0.9656872105104751,0.9675266476064279,0.041169172579826975,0.06317140764053879,0.9675266476064279,0.9433911409884939,0.07534339920206824,0.06415628774480113,0.9433911409884939,-0.0,-0.0,1.0,0.0
0.9668693070858109,0.04423712443426823,0.053246093406488504,0.9668693070858109,NORMAL,0.975655076491843,0.03735693361130128,0.061651606497060626,0.975655076491843,0.9658344179500513,0.045745219405090826,0.05795215389473039,0.9658344179500513,0.9629706022769646,0.04922654768548182,0.06451325647911098,0.9629706022769646,0.9649985733007311,0.04366250191209498,0.06489006694886992,0.9649985733007311,0.9458057294486188,0.07271075029145922,0.060694453192032906,0.9458057294486188,-0.0,-0.0,1.0,0.0
0.9668693070858109,0.04423712443426823,0.05331041933750625,0.9668693070858109,NORMAL,0.974819231842523,0.03824934238066845,0.06512361102070083,0.974819231842523,0.9662199333093827,0.045361001028288495,0.05814406887803428,0.9662199333093827,0.9622418038467073,0.04991561558496085,0.06634135859443618,0.9622418038467073,0.963777521022646,0.04523706226559356,0.06581684173385545,0.963777521022646,0.946806130545337,0.07161192731438659,0.05792666128375639,0.946806130545337,-0.0,-0.0,1.0,0.0
0.9661897761777312,0.045158777393758225,0.05780129023639958,0.9661897761777312,NORMAL,0.975811082502517,0.037081452917155776,0.06352946377258195,0.975811082502517,0.9589495394607502,0.05885413742094029,0.08904372589135962,0.9589495394607502,0.9619018441840514,0.05022195140286743,0.06719127263379622,0.9619018441840514,0.9626046223488123,0.046417993746291235,0.06975005862052587,0.9626046223488123,0.9529076216121822,0.05985199361997031,0.0381082593470592,0.9529076216121822,-0.0,-0.0,1.0,0.0
0.9671036238323881,0.04375166621217075,0.05650705223801858,0.9671036238323881,NORMAL,0.9758110825025172,0.0370814529171565,0.061750239020687124,0.9758110825025172,0.9605429180234869,0.0565647653639984,0.08304859368741815,0.9605429180234869,0.9633868738267344,0.048790736845880256,0.0634213419263282,0.9633868738267344,0.9614317236749786,0.04759591322373427,0.07392628251383819,0.9614317236749786,0.9535930105453315,0.05895024460297235,0.03802921793989975,0.9535930105453315,-0.0,-0.0,1.0,0.0
0.9674406778569017,0.0434421363655762,0.0570919777346388,0.9674406778569017,NORMAL,0.9758110825025172,0.0370814529171565,0.061750239020687124,0.9758110825025172,0.9615347686834811,0.05543402254754852,0.0808979939026476,0.9615347686834811,0.9645698836960321,0.04760768319058256,0.06113935845042483,0.9645698836960321,0.9622675683242989,0.04672478205941029,0.0722713257127344,0.9622675683242989,0.9549822504096515,0.057451038733129976,0.039415293300282685,0.9549822504096515,-0.0,-0.0,1.0,0.0
0.965847299294165,0.04577093292390062,0.061273556863019725,0.965847299294165,NORMAL,0.9771884485218428,0.035518236601175,0.05971974427492613,0.9771884485218428,0.9603137164053959,0.05698757772113682,0.08306312951085756,0.9603137164053959,0.9557517843956767,0.06255074249870977,0.09527582363620718,0.9557517843956767,0.9663890211927324,0.04191856616090667,0.06401133908504386,0.9663890211927324,0.9565317173626446,0.05614475762529408,0.04060786429684599,0.9565317173626446,-0.0,-0.0,1.0,0.0
0.9672246653134905,0.0442371212010932,0.05856138433038382,0.9672246653134905,NORMAL,0.9771884485218428,0.035518236601175,0.05936174008381583,0.9771884485218428,0.9603137164053959,0.05698757772113682,0.08306312951085756,0.9603137164053959,0.9548300587439967,0.06392955490091931,0.09694068008288302,0.9548300587439967,0.9663890211927324,0.04191856616090667,0.06774691596833364,0.9663890211927324,0.9565317173626446,0.05614475762529408,0.04060786429684599,0.9565317173626446,-0.0,-0.0,1.0,0.0
0.9667743360235019,0.04473059982736216,0.05956096245522617,0.9667743360235019,NORMAL,0.9777299698918485,0.03484863980227403,0.05997366922293532,0.9777299698918485,0.9598633871154072,0.0574712540838976,0.08343808477615519,0.9598633871154072,0.9527554299465275,0.06631601015357552,0.1000145946613887,0.9527554299465275,0.9638037919700015,0.0453936527329331,0.07382972781777278,0.9638037919700015,0.9565317173626446,0.05614475762529408,0.04060786429684599,0.9565317173626446,-0.0,-0.0,1.0,0.0
0.967610180672822,0.04385169637717332,0.058279771076108926,0.967610180672822,NORMAL,0.9777299698918485,0.03484863980227368,0.060642439218536216,0.9777299698918485,0.9610844393934926,0.05591910973074022,0.08085131779056956,0.9610844393934926,0.953484228376785,0.065647024504618,0.10234548732199633,0.953484228376785,0.9625827396919163,0.04696393093633874,0.07510454576866571,0.9625827396919163,0.9588346474556261,0.053876331879912205,0.04060625941389442,0.9588346474556261,-0.0,-0.0,1.0,0.0
0.9662328146534964,0.04538671920135176,0.061294494510403426,0.9662328146534964,NORMAL,0.9784095007999281,0.03390806674346893,0.05991877298631806,0.9784095007999281,0.9604049084854128,0.05682661149118895,0.08247271183284151,0.9604049084854128,0.9523012185074874,0.06679273224073058,0.1029464055013792,0.9523012185074874,0.9638037919700015,0.0453936527329331,0.07364452475952289,0.9638037919700015,0.9602238873199458,0.052360604902281435,0.04156984908701523,0.9602238873199458,-0.0,-0.0,1.0,0.0
0.9641759177260911,0.04783490242051186,0.06375796788007643,0.9641759177260911,NORMAL,0.9784095007999281,0.03390806674346893,0.060672769241403836,0.9784095007999281,0.9627988594373318,0.05410387336144879,0.08018312072610771,0.9627988594373318,0.9526032382808727,0.06654960062715744,0.10348796648016285,0.9526032382808727,0.9632622705999959,0.04604722816977868,0.0741597751013023,0.9632622705999959,0.9616131271842656,0.05084026618111759,0.039722264399940234,0.9616131271842656,-0.0,-0.0,1.0,0.0
0.9631840670660968,0.048976885478862336,0.06531749142734274,0.9631840670660968,NORMAL,0.9774176501399339,0.03508248680763551,0.06425408887255021,0.9774176501399339,0.9627988594373318,0.05410387336144879,0.08030076738058181,0.9627988594373318,0.9513716596900453,0.06807971817357865,0.1075521761435463,0.9513716596900453,0.9632622705999959,0.046047228169777965,0.07071531802121234,0.9632622705999959,0.9656399894536417,0.04485538051917625,0.03340151522398346,0.9656399894536417,-0.0,-0.0,1.0,0.0
