AccX_entropy,AccX_complexity,AccX_fisher,AccX_shannon,Class,AccY_entropy,AccY_complexity,AccY_fisher,AccY_shannon,AccZ_entropy,AccZ_complexity,AccZ_fisher,AccZ_shannon,GyroX_entropy,GyroX_complexity,GyroX_fisher,GyroX_shannon,GyroY_entropy,GyroY_complexity,GyroY_fisher,GyroY_shannon,GyroZ_entropy,GyroZ_complexity,GyroZ_fisher,GyroZ_shannon,Timestamp_entropy,Timestamp_complexity,Timestamp_fisher,Timestamp_shannon
0.9429591012891015,0.07665183561703635,0.14046884767414955,0.9429591012891015,NORMAL,0.8677300071477336,0.16866576095947367,0.2877726156191113,0.8677300071477336,0.9138416407989003,0.1245380582517965,0.26420497124429965,0.9138416407989003,0.9544902420110983,0.05596489162738191,0.08757402457417043,0.9544902420110983,0.944452769498624,0.08124650333903163,0.1060916767672489,0.944452769498624,0.9155430470136819,0.11723323243691727,0.19396144833068515,0.9155430470136819,-0.0,-0.0,1.0,0.0
0.9429591012891018,0.07665183561703673,0.14046884767414955,0.9429591012891018,NORMAL,0.8677300071477336,0.16866576095947367,0.2805057110160745,0.8677300071477336,0.9163480112644439,0.12274954216908404,0.25507071397044906,0.9163480112644439,0.9544902420110983,0.05596489162738191,0.08016624302371941,0.9544902420110983,0.942576976944328,0.08316917625016458,0.09709616857929988,0.942576976944328,0.9200034629445901,0.11360194077805996,0.18892366900943608,0.9200034629445901,-0.0,-0.0,1.0,0.0
0.9429591012891018,0.07665183561703673,0.14284910189154543,0.9429591012891018,NORMAL,0.8738891211131422,0.1630225803419261,0.26572643790663475,0.8738891211131422,0.9130773921093525,0.12558862198666076,0.2431029463423049,0.9130773921093525,0.9574303170858857,0.052038787777715714,0.08349097065958345,0.9574303170858857,0.9393063577892367,0.08625192657229605,0.10310374694215761,0.9393063577892367,0.9340620000874359,0.09306842401645066,0.1406346196778565,0.9340620000874359,-0.0,-0.0,1.0,0.0
0.9305420317495572,0.09627306518839361,0.20362281443782182,0.9305420317495572,NORMAL,0.8791956442545374,0.15941675644949552,0.2517346547335553,0.8791956442545374,0.9130773921093525,0.12558862198666076,0.22555908669318206,0.9130773921093525,0.9593396059357943,0.05000450814267464,0.08017840040718964,0.9593396059357943,0.942194852599554,0.0825238403140963,0.11187567676671901,0.942194852599554,0.9326422658687693,0.09422089524250016,0.1270647115962619,0.9326422658687693,-0.0,-0.0,1.0,0.0
0.9252355086081621,0.10056046440800183,0.2201209937791463,0.9252355086081621,NORMAL,0.8824662634096286,0.15684246147199365,0.23914792213552796,0.8824662634096286,0.9101888972990351,0.1290489970957999,0.20474882796321037,0.9101888972990351,0.9656087040791566,0.04270608400277791,0.06486293534487482,0.9656087040791566,0.942194852599554,0.0825238403140963,0.11319201353246415,0.942194852599554,0.9316535756143055,0.09550638583257251,0.1376785027536762,0.9316535756143055,-0.0,-0.0,1.0,0.0
0.927271412594466,0.09926283075908668,0.2184350082878414,0.927271412594466,NORMAL,0.8886253773750373,0.15098142124804298,0.22553514770051558,0.8886253773750373,0.9101888972990351,0.12904899709580026,0.2047488279632104,0.9101888972990351,0.9622796810105816,0.046038507427759924,0.07073902414209583,0.9622796810105816,0.942194852599554,0.0825238403140963,0.11513917475232187,0.942194852599554,0.9192365060747612,0.11461342426017403,0.1718909930560506,0.9192365060747612,-0.0,-0.0,1.0,0.0
0.9211122986290572,0.10581351095248631,0.22892081492906655,0.9211122986290572,NORMAL,0.9010424469145819,0.13311456190719262,0.18341501803020266,0.9010424469145819,0.9207301742842834,0.11216623993164726,0.1832044627918997,0.9207301742842834,0.9593396059357943,0.05000450814267464,0.07254296189983947,0.9593396059357943,0.9440706451538501,0.0806007946230765,0.10241430530681984,0.9440706451538501,0.9144722187101474,0.11991712081333047,0.18003312665495858,0.9144722187101474,-0.0,-0.0,1.0,0.0
0.9129172806773447,0.11351335409070842,0.235142039224305,0.9129172806773447,NORMAL,0.9148543430549214,0.11361142535313784,0.15832586913409702,0.9148543430549214,0.9134595164541263,0.11929506694074084,0.19702866722327586,0.9134595164541263,0.9641889698604902,0.04398099183617872,0.06974008684806744,0.9641889698604902,0.9546119221390986,0.062447174039352814,0.07183074580556639,0.9546119221390986,0.926889288249692,0.10099579073840985,0.12953636915476824,0.926889288249692,-0.0,-0.0,1.0,0.0
0.9176815680419583,0.1081873302892494,0.2137917112638429,0.9176815680419583,NORMAL,0.9196186304195351,0.10827216523251121,0.15319378597823835,0.9196186304195351,0.9134595164541263,0.11929506694074084,0.19702866722327586,0.9134595164541263,0.9686493857913983,0.03975980625938752,0.061083760424009655,0.9686493857913983,0.9546119221390986,0.062447174039352814,0.07332485515950923,0.9546119221390986,0.9254944616488968,0.10211930227093279,0.13952247897381231,0.9254944616488968,-0.0,-0.0,1.0,0.0
0.9071402910567101,0.12505067780593676,0.22535454796240606,0.9071402910567101,NORMAL,0.9257777443849438,0.10175079266662519,0.1427079793370132,0.9257777443849438,0.9134595164541263,0.11929506694074052,0.20301599783496252,0.9134595164541263,0.9715894608661856,0.03572138507006576,0.055669021623273834,0.9715894608661856,0.9546119221390982,0.06244717403935243,0.07828206682241626,0.9546119221390982,0.9316535756143055,0.0955063858325708,0.13459803758531724,0.9316535756143055,-0.0,-0.0,1.0,0.0
0.9100287858670275,0.12159186863601705,0.21430687148867542,0.9100287858670275,NORMAL,0.9301599074047834,0.0980136559376077,0.13139307216912807,0.9301599074047834,0.9120646898533313,0.1203698929324132,0.20217193245784418,0.9120646898533313,0.9608599467919152,0.05476074944798879,0.09399517108652337,0.9608599467919152,0.9517234273287809,0.06629192722050839,0.09923222252591997,0.9517234273287809,0.9287650808039882,0.09914668123986851,0.13371189272186423,0.9287650808039882,-0.0,-0.0,1.0,0.0
0.9081529933127312,0.12334916440836874,0.22304159624448475,0.9081529933127312,NORMAL,0.9349241947693969,0.0924860578944782,0.1225040433945124,0.9349241947693969,0.9134595164541263,0.11929506694074084,0.21161118329978534,0.9134595164541263,0.9608599467919152,0.05476074944798809,0.09246327041461436,0.9608599467919152,0.9498476347744849,0.06826138291544101,0.10719948463187627,0.9498476347744849,0.9240007934393744,0.10459726474845298,0.136021585661994,0.9240007934393744,-0.0,-0.0,1.0,0.0
0.9095478199135263,0.12228509817013923,0.2263921424016596,0.9095478199135263,NORMAL,0.9381948139244882,0.08944225229610665,0.11709067449946162,0.9381948139244882,0.9134595164541263,0.11929506694074084,0.19702866722327586,0.9134595164541263,0.9579198717171277,0.05869377620038713,0.1048589646128235,0.9579198717171277,0.9469591399641675,0.07206731469934377,0.1138475088768414,0.9469591399641675,0.9268892882496917,0.10099579073840981,0.12272553717206372,0.9268892882496917,-0.0,-0.0,1.0,0.0
0.9095478199135263,0.12228509817013923,0.22833930362151733,0.9095478199135263,NORMAL,0.9410833087348055,0.0857290136684886,0.11460611006638019,0.9410833087348055,0.910953145988583,0.12108528541666819,0.20145445130798875,0.910953145988583,0.9560105828672191,0.060707425100799316,0.10766183966459553,0.9560105828672191,0.9364178629789194,0.0899555281036695,0.15620213277812375,0.9364178629789194,0.9407011843900315,0.08034848191015609,0.08754427697375788,0.9407011843900315,-0.0,-0.0,1.0,0.0
0.9114236124678227,0.12052213326262977,0.2156711784904536,0.9114236124678227,NORMAL,0.936319021370192,0.09133362624615936,0.11779103200238117,0.936319021370192,0.9153353090084225,0.11751623326860361,0.19876818667576995,0.9153353090084225,0.9560105828672193,0.060707425100798976,0.10911080824264148,0.9560105828672193,0.933529368168602,0.093634644908218,0.16428462096734742,0.933529368168602,0.9330484022151005,0.09436346795399154,0.12820808829298216,0.9330484022151005,-0.0,-0.0,1.0,0.0
0.9128184390686175,0.1194485532546624,0.21924309876600842,0.9128184390686175,NORMAL,0.9344432288158957,0.09321670544082813,0.12511758201510223,0.9344432288158957,0.9214944229738313,0.1110939832700567,0.18667038158429836,0.9214944229738313,0.9608599467919152,0.05476074944798879,0.0971651453284499,0.9608599467919152,0.9211122986290574,0.1128107247655435,0.22975919653873123,0.9211122986290574,0.9305420317495572,0.09627306518839396,0.13160452483715848,0.9305420317495572,-0.0,-0.0,1.0,0.0
0.908054151704004,0.12468144494946318,0.21772715767690196,0.908054151704004,NORMAL,0.9344432288158957,0.09321670544082951,0.11785067741206548,0.9344432288158957,0.9186059281635139,0.11463909594451548,0.19092723574428583,0.9186059281635139,0.9608599467919152,0.05476074944798914,0.0925005749131667,0.9608599467919152,0.9134595164541263,0.1262341465249702,0.2625372228968471,0.9134595164541263,0.9146942316229137,0.11767162445661118,0.15922344684657147,0.9146942316229137,-0.0,-0.0,1.0,0.0
0.9099299442583001,0.12292714757722342,0.22136513147881778,0.9099299442583001,NORMAL,0.9330484022151008,0.09436346795398952,0.11130710993474238,0.9330484022151008,0.9109531459885831,0.1280053254005519,0.23885795166654683,0.9109531459885831,0.9534594557862196,0.06277573695268336,0.1065716401379603,0.9534594557862196,0.9148543430549214,0.1251660716751214,0.2563082704156094,0.9148543430549214,0.9085963874807856,0.12211659965589841,0.16720494141100328,0.9085963874807856,-0.0,-0.0,1.0,0.0
0.9152364673996953,0.11885989296473026,0.21437565442066037,0.9152364673996953,NORMAL,0.9253956200401697,0.1081378322315757,0.11626432159764938,0.9253956200401697,0.9061888586239694,0.13318015871081756,0.2439322622795081,0.9061888586239694,0.9408206528620404,0.08306892102074355,0.14030399389631942,0.9408206528620404,0.9119658482446041,0.1286360838805045,0.2626890301551931,0.9119658482446041,0.9036824881584259,0.12503610857938652,0.1692692015809152,0.9036824881584259,-0.0,-0.0,1.0,0.0
0.9138416407989002,0.11993818478439934,0.2130785371776272,0.9138416407989002,NORMAL,0.9330484022151008,0.09436346795398985,0.10829705949169308,0.9330484022151008,0.9043130660696731,0.1349039148437719,0.2533936337394072,0.9043130660696731,0.9378805777872531,0.08682413286181216,0.1531983355475807,0.9378805777872531,0.9086952290895127,0.13143621897432128,0.2761481525939906,0.9086952290895127,0.8981539521042644,0.12813248726029525,0.16691505109054863,0.8981539521042644,-0.0,-0.0,1.0,0.0
0.912446814198105,0.12101263196948904,0.22111748577681356,0.912446814198105,NORMAL,0.9392075161805092,0.08763472428896886,0.10244163921012076,0.9392075161805092,0.8905011699293336,0.15381361641784463,0.26265440645871285,0.8905011699293336,0.9330312138625572,0.09244866978184878,0.16511888701989572,0.9330312138625572,0.8948833329491732,0.1505117591006602,0.31951895882205344,0.8948833329491732,0.8920724607528404,0.13134904452931584,0.1648018844748954,0.8920724607528404,-0.0,-0.0,1.0,0.0
0.912446814198105,0.1210126319694887,0.2110281909580479,0.912446814198105,NORMAL,0.9392075161805092,0.08763472428896886,0.10605965414365989,0.9392075161805092,0.9029182394688782,0.13594021766749795,0.24277899946263018,0.9029182394688782,0.9363602369311321,0.08939259307695895,0.16058264100209385,0.9363602369311321,0.8887242189837644,0.15643233388283473,0.33640916786466785,0.8887242189837644,0.8873081733882269,0.13637008320900756,0.1776448810989108,0.8873081733882269,-0.0,-0.0,1.0,0.0
0.912446814198105,0.1210126319694887,0.2110281909580479,0.912446814198105,NORMAL,0.9497487931657576,0.06966177527959123,0.08851579449453709,0.9497487931657576,0.9105710216438089,0.12277712897119704,0.212754674909764,0.9105710216438089,0.9334201618563449,0.09310761886870561,0.16491551041493824,0.9334201618563449,0.8839599316191508,0.1612946689104187,0.35114251945395775,0.8839599316191508,0.8901966681985444,0.13304107721387537,0.1765729488749243,0.8901966681985444,-0.0,-0.0,1.0,0.0
0.912446814198105,0.1210126319694887,0.2110281909580479,0.912446814198105,NORMAL,0.9497487931657576,0.06966177527959123,0.09277264865452453,0.9497487931657576,0.9076825268334916,0.126234706274829,0.20478741280380772,0.9076825268334916,0.9334201618563449,0.09310761886870561,0.16491551041493824,0.9334201618563449,0.8901190455845596,0.15545110866278677,0.3315673515086512,0.8901190455845596,0.8883208756442481,0.13472481514305162,0.1739850755618314,0.8883208756442481,-0.0,-0.0,1.0,0.0
0.912446814198105,0.1210126319694887,0.2272774836364442,0.912446814198105,NORMAL,0.9545130805303712,0.06385526437779689,0.08770925390914508,0.9545130805303712,0.9058067342791953,0.12797657185072647,0.20073820041118387,0.9058067342791953,0.9320004276376783,0.0942590427336665,0.1664708871827851,0.9320004276376783,0.8901190455845596,0.1554511086627861,0.323284264578834,0.8901190455845596,0.8883208756442481,0.1347248151430513,0.18867507829783947,0.8883208756442481,-0.0,-0.0,1.0,0.0
0.9080646511782656,0.12455001023999153,0.24410892202743514,0.9080646511782656,NORMAL,0.9563888730846675,0.06186617565716474,0.08196733339600967,0.9563888730846675,0.9058067342791953,0.12797657185072647,0.20073820041118387,0.9058067342791953,0.9265991451544727,0.09858948616278704,0.16603646580538478,0.9265991451544727,0.8930075403948771,0.15217070660068363,0.32221233235484753,0.8930075403948771,0.8962781595499684,0.12984655402230785,0.1878146014003814,0.8962781595499684,-0.0,-0.0,1.0,0.0
0.9105710216438089,0.1227771289711977,0.23419176682999812,0.9105710216438089,NORMAL,0.961153160449281,0.055975580506494524,0.07239073585284317,0.961153160449281,0.9086952290895127,0.12453333121752214,0.1946028734418179,0.9086952290895127,0.9240480180734733,0.10047955993889111,0.16391186775078653,0.9240480180734733,0.8901190455845596,0.15545110866278708,0.31725512069194056,0.8901190455845596,0.8962781595499684,0.12984655402230785,0.18355774724039395,0.8962781595499684,-0.0,-0.0,1.0,0.0
0.9105710216438089,0.12277712897119805,0.2442810616487638,0.9105710216438089,NORMAL,0.961153160449281,0.05597558050649523,0.07026683027324689,0.961153160449281,0.9119658482446041,0.12170835092126618,0.18765179366264204,0.9119658482446041,0.9133185039992024,0.11778514590292664,0.18696069256159895,0.9133185039992024,0.8962781595499684,0.1495111275345545,0.3217234894601033,0.8962781595499684,0.893389664739651,0.1332145596507655,0.19952602039072598,0.893389664739651,-0.0,-0.0,1.0,0.0
0.9178416794739659,0.11570446056649113,0.235017823268963,0.9178416794739659,NORMAL,0.9578825412941896,0.059223116103063106,0.07140944343367088,0.9578825412941896,0.9130773921093525,0.12099259540816866,0.17968198128437904,0.9130773921093525,0.9240480180734733,0.10047955993889111,0.1706354503763651,0.9240480180734733,0.910090055690308,0.13038370583595213,0.2728150877483539,0.910090055690308,0.893389664739651,0.1332145596507655,0.19952602039072598,0.893389664739651,-0.0,-0.0,1.0,0.0
0.9226059668385796,0.11035487290174899,0.2162024890126374,0.9226059668385796,NORMAL,0.9553761708286463,0.061288960265244226,0.0708151493540524,0.9553761708286463,0.9069182781439437,0.12727534567556162,0.17864402916258,0.9069182781439437,0.9133185039992024,0.11778514590292598,0.23420625168775236,0.9133185039992024,0.9206313326755562,0.11351854331927685,0.2225746788859631,0.9206313326755562,0.8873081733882271,0.13637008320900826,0.19357264455106216,0.8873081733882271,-0.0,-0.0,1.0,0.0
0.9197174720282623,0.1139074302070201,0.21759209079835362,0.9197174720282623,NORMAL,0.9553761708286463,0.06128896026524387,0.06612520219652679,0.9553761708286463,0.9130773921093525,0.12099259540816866,0.1666531972998302,0.9130773921093525,0.9103784289244153,0.12130305643940245,0.24945153079593144,0.9103784289244153,0.9330484022151008,0.09436346795399088,0.18278609656261005,0.9330484022151008,0.8807241416336332,0.13959700449719448,0.18584256501927612,0.8807241416336332,-0.0,-0.0,1.0,0.0
0.9226059668385796,0.11035487290174899,0.2069544768987824,0.9226059668385796,NORMAL,0.9553761708286463,0.06128896026524387,0.06417804097666907,0.9553761708286463,0.9130773921093525,0.12099259540816866,0.1666531972998302,0.9130773921093525,0.9084691400745065,0.12307333464330784,0.2623458724471927,0.9084691400745065,0.935936897025418,0.09068879524354774,0.17143720929253753,0.935936897025418,0.873679549669488,0.14286005869037488,0.19110502066793525,0.873679549669488,-0.0,-0.0,1.0,0.0
0.9226059668385796,0.11035487290174899,0.20075950451973212,0.9226059668385796,NORMAL,0.952487676018329,0.06514060548601609,0.06949778435984813,0.952487676018329,0.8981539521042644,0.1410154050174095,0.2362693163361226,0.8981539521042644,0.9236590700796854,0.10223058915018922,0.2111599682224084,0.9236590700796854,0.9378126895797141,0.08879704851360884,0.16536036409200064,0.9378126895797141,0.8689152623048745,0.1476849365173649,0.21157745361525945,0.8689152623048745,-0.0,-0.0,1.0,0.0
0.9178416794739659,0.11570446056649081,0.20582289926511158,0.9178416794739659,NORMAL,0.9549940464838724,0.06309209853096816,0.07026882279920517,0.9549940464838724,0.9010424469145817,0.13765000990991055,0.24634666705884736,0.9010424469145817,0.9397898666371617,0.08006212119025488,0.1425598692489173,0.9397898666371617,0.9378126895797141,0.08879704851360884,0.1554787110405986,0.9378126895797141,0.8670394697505782,0.14928314239829876,0.22033846757223904,0.8670394697505782,-0.0,-0.0,1.0,0.0
0.9105710216438089,0.1227771289711977,0.20249948965869657,0.9105710216438089,NORMAL,0.9626468286588032,0.048463724132034224,0.05143039617935586,0.9626468286588032,0.9083131047447388,0.1307913226959749,0.2390797624558106,0.9083131047447388,0.9397898666371617,0.08006212119025626,0.1425598692489173,0.9397898666371617,0.9353063191141711,0.09073388488709569,0.15073301398586694,0.9353063191141711,0.8546224002110338,0.1660926431380833,0.2586220246740675,0.8546224002110338,-0.0,-0.0,1.0,0.0
0.9105710216438091,0.12277712897119775,0.19122116366589015,0.9105710216438091,NORMAL,0.967411116023417,0.042464435163225775,0.0471825850201633,0.967411116023417,0.9221250008850783,0.11106531104900931,0.18117769729398098,0.9221250008850783,0.9405515724322855,0.07965917525981762,0.139172674047764,0.9405515724322855,0.9353063191141711,0.09073388488709569,0.14391916124874504,0.9353063191141711,0.8408105040706942,0.1832083402175755,0.2730635874196677,0.8408105040706942,-0.0,-0.0,1.0,0.0
0.9086952290895128,0.12453333121752283,0.17651061010007807,0.9086952290895128,NORMAL,0.967411116023417,0.042464435163225775,0.0471825850201633,0.967411116023417,0.9345420704246229,0.09184160569845158,0.1331874205738472,0.9345420704246229,0.9281345028927409,0.09918474240025678,0.1804553657250599,0.9281345028927409,0.9214944229738313,0.11109398327005601,0.17384915475530163,0.9214944229738313,0.8408105040706942,0.1832083402175755,0.2672530011677196,0.8408105040706942,-0.0,-0.0,1.0,0.0
0.9058067342791956,0.1279765718507272,0.20326853557209532,0.9058067342791956,NORMAL,0.967411116023417,0.042464435163225775,0.0471825850201633,0.967411116023417,0.9345420704246229,0.09184160569844987,0.1291054379068114,0.9345420704246229,0.9237523398729014,0.10290615591035818,0.1894605799528153,0.9237523398729014,0.9167301356092177,0.11643189350719343,0.17765295704937423,0.9167301356092177,0.838934711516398,0.1846544993485207,0.2643025961343547,0.838934711516398,-0.0,-0.0,1.0,0.0
0.8981539521042645,0.14101540501740953,0.2148400575889079,0.8981539521042645,NORMAL,0.9535992198830773,0.06431417677019254,0.08678377332732382,0.9535992198830773,0.9345420704246229,0.09184160569845021,0.12955848977272624,0.9345420704246229,0.9262587103384449,0.10103224472223049,0.18447772565407794,0.9262587103384449,0.9167301356092177,0.11643189350719343,0.17765295704937423,0.9167301356092177,0.8513517810559424,0.16851266262469158,0.25382891518848677,0.8513517810559424,-0.0,-0.0,1.0,0.0
0.9000297446585608,0.13931994944542517,0.2077589403464046,0.9000297446585608,NORMAL,0.9535992198830769,0.06431417677019251,0.08678377332732382,0.9535992198830769,0.9320356999590798,0.09376184359508058,0.12491698327450874,0.9320356999590798,0.9335293681686018,0.09363464490821866,0.17000092697357055,0.9335293681686018,0.9167301356092177,0.11643189350719343,0.16976717208826583,0.9167301356092177,0.8561160684205559,0.16393431771348535,0.24380830878020032,0.8561160684205559,-0.0,-0.0,1.0,0.0
0.8876126751190162,0.15707668127281527,0.2665854916728233,0.8876126751190162,NORMAL,0.9492170568632373,0.06832383569869849,0.09254725936449495,0.9492170568632373,0.9353063191141711,0.0907338848870974,0.11742850028210912,0.9353063191141711,0.9349241947693969,0.09248605789447921,0.1689527645186275,0.9349241947693969,0.9186059281635139,0.11463909594451514,0.160365446038051,0.9186059281635139,0.843882129670959,0.17141001644994872,0.2492033419637723,0.843882129670959,-0.0,-0.0,1.0,0.0
0.8717648749923729,0.17622907849152633,0.2810666996996454,0.8717648749923729,NORMAL,0.9473412643089413,0.07028338946168022,0.0931661397225666,0.9473412643089413,0.9396884821340106,0.08689700702828744,0.11497797367024155,0.9396884821340106,0.9349241947693969,0.09248605789447921,0.16775334510362028,0.9349241947693969,0.9229880911833535,0.1109997305155317,0.16696778416699756,0.9229880911833535,0.8467706244812763,0.168407845524807,0.25238826389977326,0.8467706244812763,-0.0,-0.0,1.0,0.0
0.8684942558372817,0.17868509540909355,0.2797672803355469,0.8684942558372817,NORMAL,0.942576976944328,0.07600890637562145,0.09336284295068187,0.942576976944328,0.9367999873236932,0.09060035307958637,0.13823782231387502,0.9367999873236932,0.927271412594466,0.10630683217597789,0.18490095914141147,0.927271412594466,0.9277523785479671,0.10558931828768758,0.16401735646196602,0.9277523785479671,0.8467706244812763,0.168407845524807,0.2500785709596436,0.8467706244812763,-0.0,-0.0,1.0,0.0
0.8659878853717381,0.18018245119192908,0.26773704290843753,0.8659878853717381,NORMAL,0.942576976944328,0.07600890637562145,0.09336284295068187,0.942576976944328,0.9415642746883066,0.08498867078758206,0.12477594533178803,0.9415642746883066,0.9243829177841486,0.10989351130431892,0.19873441084456545,0.9243829177841486,0.9277523785479671,0.10558931828768758,0.17128426106500277,0.9277523785479671,0.8467706244812763,0.168407845524807,0.2419364373607356,0.8467706244812763,-0.0,-0.0,1.0,0.0
0.8659878853717381,0.18018245119192908,0.26240829849232195,0.8659878853717381,NORMAL,0.942576976944328,0.07600890637562041,0.08954812478902746,0.942576976944328,0.9415642746883066,0.0849886707875824,0.12328183597784519,0.9415642746883066,0.9225071252298525,0.11171017468948984,0.19705451413008912,0.9225071252298525,0.9382936555332154,0.08806115575350551,0.14416380387271346,0.9382936555332154,0.8529297384466851,0.16295648124439827,0.23732782079610143,0.8529297384466851,-0.0,-0.0,1.0,0.0
0.8659878853717381,0.18018245119192908,0.2577074354672146,0.8659878853717381,NORMAL,0.9425769769443277,0.07600890637562144,0.1000814284729131,0.9425769769443277,0.9396884821340106,0.0868970070282871,0.12672310655164573,0.9396884821340106,0.9211122986290571,0.11281072476554513,0.19715897089773113,0.9211122986290571,0.9415642746883066,0.08498867078758171,0.14432652699864132,0.9415642746883066,0.8558182332570025,0.15988111161885799,0.24935523383392993,0.8558182332570025,-0.0,-0.0,1.0,0.0
0.8634815149061948,0.18166815468053069,0.26308653537728355,0.8634815149061948,NORMAL,0.9364178629789192,0.08284204583296077,0.11163012433732983,0.9364178629789192,0.9364178629789194,0.08995552810367122,0.11984258804973597,0.9364178629789194,0.9316535756143054,0.09550638583257147,0.1492282549754701,0.9316535756143054,0.9415642746883066,0.08498867078758171,0.14432652699864132,0.9415642746883066,0.8558182332570025,0.15988111161885799,0.25405609685903735,0.8558182332570025,-0.0,-0.0,1.0,0.0
0.8634815149061948,0.18166815468053069,0.26412469177006553,0.8634815149061948,NORMAL,0.9411821503435328,0.07719354345356252,0.09921834784406572,0.9411821503435328,0.9320356999590798,0.09376184359508091,0.11887815208581518,0.9320356999590798,0.9240007934393746,0.10924827488395253,0.19414892045468182,0.9240007934393746,0.9415642746883066,0.08498867078758171,0.14432652699864132,0.9415642746883066,0.8510539458923888,0.16447978215479667,0.2632611196811369,0.8510539458923888,-0.0,-0.0,1.0,0.0
0.8544951759537492,0.1883171967652178,0.26008919007439274,0.8544951759537492,NORMAL,0.9367999873236932,0.08108301853625374,0.10476045976285692,0.9367999873236932,0.929147205148762,0.0974092865220683,0.12118784502594493,0.929147205148762,0.9240007934393746,0.10924827488395218,0.19884978347978924,0.9240007934393746,0.9415642746883066,0.08498867078758171,0.15398460168665573,0.9415642746883066,0.8510539458923888,0.16447978215479603,0.28318448236503413,0.8510539458923888,-0.0,-0.0,1.0,0.0
0.8544951759537492,0.1883171967652175,0.27293218669840813,0.8544951759537492,NORMAL,0.9367999873236932,0.08108301853625442,0.10035590111276609,0.9367999873236932,0.9167301356092175,0.11643189350719373,0.13403084164996032,0.9167301356092175,0.9345420704246229,0.09184160569845054,0.16145237124141387,0.9345420704246229,0.9415642746883066,0.08498867078758032,0.15398460168665573,0.9415642746883066,0.8603993898316684,0.15992208455753953,0.27203987061989066,0.8603993898316684,-0.0,-0.0,1.0,0.0
0.8588773389735888,0.18538748723558796,0.27224403950265735,0.8588773389735888,NORMAL,0.9367999873236932,0.08108301853625374,0.10443788377980187,0.9367999873236932,0.9134595164541263,0.11929506694074052,0.13737778117745134,0.9134595164541263,0.9240007934393746,0.10924827488395253,0.19265481110073895,0.9240007934393746,0.9415642746883066,0.08498867078758032,0.14609881672554734,0.9415642746883066,0.8722082691604273,0.15211958182593288,0.25848260918047206,0.8722082691604273,-0.0,-0.0,1.0,0.0
0.8621479581286801,0.1829990444797834,0.25906309743682304,0.8621479581286801,NORMAL,0.9367999873236932,0.08108301853625442,0.11702453176601768,0.9367999873236932,0.9109531459885831,0.12108528541666853,0.13548412050862532,0.9109531459885831,0.9240007934393746,0.10924827488395253,0.19139521864943213,0.9240007934393746,0.9477233886537152,0.07812631146607812,0.14179525566914872,0.9477233886537152,0.8740840617147234,0.15051413391431645,0.2539784493834799,0.8740840617147234,-0.0,-0.0,1.0,0.0
0.8759598542690196,0.1653030415986577,0.20793524927139231,0.8759598542690196,NORMAL,0.9291472051487623,0.0950279505683902,0.10293285855827722,0.9291472051487623,0.9109531459885831,0.12108528541666853,0.13315257316166543,0.9109531459885831,0.9258765859936708,0.10742294396351287,0.18502537477743017,0.9258765859936708,0.9477233886537152,0.07812631146607812,0.1379009332294333,0.9477233886537152,0.8740840617147235,0.15051413391431648,0.2554725587374228,0.8740840617147235,-0.0,-0.0,1.0,0.0
0.8788483490793372,0.1621232916693014,0.19686454237428294,0.8788483490793372,NORMAL,0.9153353090084227,0.11517029618895301,0.1578036537803208,0.9153353090084227,0.9153353090084227,0.11751623326860364,0.130296725875093,0.9153353090084227,0.9211122986290571,0.11281072476554378,0.1954772013164679,0.9211122986290571,0.9601404581932598,0.0578631139497507,0.09554630932815095,0.9601404581932598,0.871195566904406,0.15370915050785902,0.2545973297415516,0.871195566904406,-0.0,-0.0,1.0,0.0
0.8912654186188815,0.14465408550255449,0.16177682307603733,0.8912654186188815,NORMAL,0.9153353090084225,0.11517029618895298,0.1578036537803208,0.9153353090084225,0.9047940320231742,0.13422213066970207,0.19025477022337098,0.9047940320231742,0.9240007934393746,0.10924827488395218,0.19597795449602615,0.9240007934393746,0.9601404581932598,0.0578631139497507,0.09554630932815095,0.9601404581932598,0.8740840617147234,0.15051413391431712,0.23029926276499119,0.8740840617147234,-0.0,-0.0,1.0,0.0
0.8865011312542679,0.14959816158913447,0.1761139290539956,0.8865011312542679,NORMAL,0.9124468141981051,0.11867409788960508,0.16720537983053566,0.9124468141981051,0.9019055372128568,0.13761619911805786,0.20196618921371554,0.9019055372128568,0.9258765859936708,0.10742294396351253,0.18502537477743017,0.9258765859936708,0.9582646656389637,0.059868792181150404,0.09793747941312861,0.9582646656389637,0.8693197743501099,0.15530026174904749,0.25760738018460083,0.8693197743501099,-0.0,-0.0,1.0,0.0
0.8908832942741075,0.14629702404145511,0.17201848024707134,0.8908832942741075,NORMAL,0.9095583193877879,0.12215341486343322,0.16402045789453468,0.9095583193877879,0.8975233741930173,0.14101830120369413,0.21360496680424268,0.8975233741930173,0.9211122986290572,0.11281072476554414,0.20079694469964696,0.9211122986290572,0.9582646656389637,0.059868792181150404,0.10006138499272489,0.9582646656389637,0.8777795986589999,0.1506461552424923,0.25781443868268483,0.8777795986589999,-0.0,-0.0,1.0,0.0
0.9014245712593558,0.13003607030258305,0.13374583901282475,0.9014245712593558,NORMAL,0.9019055372128568,0.13530468155584033,0.19570188113839937,0.9019055372128568,0.8956475816387213,0.1427038548437283,0.22694871660781632,0.8956475816387213,0.927271412594466,0.10630683217597926,0.2051489464153537,0.927271412594466,0.9582646656389637,0.059868792181150404,0.10006138499272489,0.9582646656389637,0.8730153112943863,0.1554588541436926,0.2556796172355068,0.8730153112943863,-0.0,-0.0,1.0,0.0
0.8989182007938122,0.13176407812652077,0.13546103360235312,0.8989182007938122,NORMAL,0.9047940320231742,0.13190321010771694,0.18399046214805478,0.9047940320231742,0.9000297446585607,0.13931994944542514,0.22965796086282922,0.9000297446585607,0.927271412594466,0.10630683217597892,0.2034094269628596,0.927271412594466,0.9582646656389637,0.059868792181150404,0.10006138499272489,0.9582646656389637,0.8605982417548418,0.17232763817108357,0.3014755117105897,0.8605982417548418,-0.0,-0.0,1.0,0.0
0.8989182007938125,0.13176407812652083,0.14423296342691452,0.8989182007938125,NORMAL,0.9047940320231742,0.13190321010771727,0.18044588269424275,0.9047940320231742,0.9025361151241039,0.1376099453929222,0.2380303393725075,0.9025361151241039,0.9320356999590796,0.10084203683940332,0.18293699401553543,0.9320356999590796,0.9582646656389637,0.05986879218115006,0.10625635737177516,0.9582646656389637,0.854439127789433,0.17778244574697785,0.31374633487294457,0.854439127789433,-0.0,-0.0,1.0,0.0
0.8970424082395162,0.13347248403512765,0.14164509011382162,0.8970424082395162,NORMAL,0.9019055372128568,0.135304681555841,0.19607629501456741,0.9019055372128568,0.9054246099344213,0.1342128764078602,0.24448166038935734,0.9054246099344213,0.9320356999590794,0.10084203683940329,0.17736090199455679,0.9320356999590794,0.9553761708286461,0.06373751912897817,0.11088665911961645,0.9553761708286461,0.8591257925400619,0.17600830690632358,0.3169430221569348,0.8591257925400619,-0.0,-0.0,1.0,0.0
0.9014245712593558,0.1300360703025827,0.14251776883738612,0.9014245712593558,NORMAL,0.8946348793826999,0.14206332764675375,0.201103983342929,0.8946348793826999,0.9101888972990351,0.12904899709580026,0.24067785809528472,0.9101888972990351,0.9320356999590794,0.10084203683940261,0.1735570997004842,0.9320356999590794,0.9553761708286463,0.06373751912897818,0.11558752214472387,0.9553761708286463,0.8715428620796065,0.15922962652220757,0.27482289248662184,0.8715428620796065,-0.0,-0.0,1.0,0.0
0.8970424082395162,0.13347248403512765,0.137841287819749,0.8970424082395162,NORMAL,0.8927590868284037,0.1437393521347232,0.1941996104601643,0.8927590868284037,0.9083131047447388,0.13079132269597457,0.23986227450909783,0.9083131047447388,0.9320356999590796,0.100842036839404,0.17355709970048416,0.9320356999590796,0.9521055516735549,0.06693659623204859,0.1264587712704284,0.9521055516735549,0.8744313568899238,0.1560512310370315,0.2482966447621396,0.8744313568899238,-0.0,-0.0,1.0,0.0
0.8970424082395162,0.13347248403512796,0.13933539717369184,0.8970424082395162,NORMAL,0.8927590868284037,0.1437393521347232,0.196146771680022,0.8927590868284037,0.9058067342791956,0.13253600116274517,0.23082287590817216,0.9058067342791956,0.9396884821340106,0.0868970070282871,0.1457362850052753,0.9396884821340106,0.9549940464838723,0.06309209853096884,0.12592136805720466,0.9549940464838723,0.8744313568899238,0.1560512310370315,0.2513066952051889,0.8744313568899238,-0.0,-0.0,1.0,0.0
0.8981539521042645,0.13278789651666656,0.13952983901229485,0.8981539521042645,NORMAL,0.8960297059834951,0.14104993168257945,0.20557901865847444,0.8960297059834951,0.9014245712593559,0.13598325431617045,0.23591237438058094,0.9014245712593559,0.944452769498624,0.08124650333903163,0.140476164360114,0.944452769498624,0.9549940464838723,0.06309209853096884,0.12592136805720466,0.9549940464838723,0.8733198130251757,0.1566793386839179,0.24944066030723971,0.8733198130251757,-0.0,-0.0,1.0,0.0
0.9023760036920966,0.13021362468052544,0.13941825603706479,0.9023760036920966,NORMAL,0.8989182007938125,0.13769472626252158,0.20205627093982598,0.8989182007938125,0.9046951904144472,0.13322952848014122,0.23810069637879072,0.9046951904144472,0.9568698390381685,0.061100384190111594,0.08440331483894503,0.9568698390381685,0.9488349325184637,0.07011219567483941,0.13772351146417497,0.9488349325184637,0.8733198130251757,0.1566793386839179,0.22462989605508016,0.8733198130251757,-0.0,-0.0,1.0,0.0
0.9105710216438091,0.1227771289711964,0.13834552284492366,0.9105710216438091,NORMAL,0.903300363813652,0.13426902733528112,0.19200089428310274,0.903300363813652,0.903300363813652,0.13426902733528112,0.2426141653877056,0.903300363813652,0.9597583338484859,0.0572170650917783,0.08032133217190923,0.9597583338484859,0.951723427328781,0.06629192722050839,0.13797986010197455,0.951723427328781,0.8751956055794718,0.15508081059993173,0.23039177543659228,0.8751956055794718,-0.0,-0.0,1.0,0.0
0.905264498502414,0.12679363690785955,0.13710856309693503,0.905264498502414,NORMAL,0.910953145988583,0.12108528541666784,0.2060925674908432,0.910953145988583,0.8951053458619395,0.14152355037859146,0.26313752114148264,0.8951053458619395,0.9564877146933947,0.060455086918607626,0.08246830198611116,0.9564877146933947,0.9531182539295763,0.0650755181164432,0.1305408385492757,0.9531182539295763,0.8751956055794718,0.15508081059993173,0.23209350388623218,0.8751956055794718,-0.0,-0.0,1.0,0.0
0.905264498502414,0.12679363690785955,0.14911412172793337,0.905264498502414,NORMAL,0.910953145988583,0.12108528541666784,0.20910261793389254,0.910953145988583,0.8889462318965309,0.14750796670340624,0.2737243005072888,0.8889462318965309,0.9597583338484859,0.0572170650917783,0.08317942880465604,0.9597583338484859,0.95124246137528,0.06705064294653362,0.13265382826129019,0.95124246137528,0.8780841003897892,0.15187103834831456,0.2511314728892978,0.8780841003897892,-0.0,-0.0,1.0,0.0
0.9071402910567101,0.1250506778059358,0.14975483382116858,0.9071402910567101,NORMAL,0.9142237651436742,0.11823871045997825,0.19406904996549298,0.9142237651436742,0.890341058497326,0.14651237115866936,0.27398731569247103,0.890341058497326,0.9616341264027821,0.05520271932510956,0.08485932551913236,0.9616341264027821,0.9531182539295763,0.06507551811644285,0.12691190774815478,0.9531182539295763,0.8780841003897892,0.15187103834831456,0.25120203416656395,0.8780841003897892,-0.0,-0.0,1.0,0.0
0.9132994050221187,0.11875087359973634,0.1452413648122537,0.9132994050221187,NORMAL,0.910953145988583,0.12108528541666752,0.19108112014040168,0.910953145988583,0.8928474289628694,0.14484935787792466,0.2814757986848706,0.8928474289628694,0.9597583338484861,0.057217065091777965,0.08404374193294548,0.9597583338484861,0.9563888730846675,0.061866175657165096,0.11610021942032306,0.9563888730846675,0.8799598929440853,0.15024987883851787,0.2451819332804654,0.8799598929440853,-0.0,-0.0,1.0,0.0
0.9132994050221187,0.11875087359973634,0.15188938905721883,0.9132994050221187,NORMAL,0.9186059281635137,0.10766092173180562,0.15342735926422674,0.9186059281635137,0.8928474289628694,0.14484935787792436,0.2926279827268279,0.8928474289628694,0.9597583338484861,0.057217065091777965,0.08404374193294548,0.9597583338484861,0.9535003782743501,0.06572056593456706,0.12418270760954672,0.9535003782743501,0.8738007789786767,0.15603790519202215,0.2424284976863435,0.8738007789786767,-0.0,-0.0,1.0,0.0
0.9114236124678226,0.12052213326262907,0.15577466849613936,0.9114236124678226,NORMAL,0.9186059281635137,0.10766092173180597,0.15342735926422674,0.9186059281635137,0.889958934152552,0.14815267872763296,0.3005246835555181,0.889958934152552,0.9616341264027821,0.05520271932510956,0.08468445402618069,0.9616341264027821,0.9553761708286461,0.06373751912897921,0.12117265716649742,0.9553761708286461,0.8812051075871343,0.15162332270663947,0.24847131198410838,0.8812051075871343,-0.0,-0.0,1.0,0.0
0.9219648894530708,0.10351408769088541,0.11260446100867003,0.9219648894530708,NORMAL,0.9157174333531964,0.11120349208083441,0.1529266060846685,0.9157174333531964,0.8913537607533472,0.14715643457972993,0.3082484509251364,0.8913537607533472,0.9597583338484859,0.057217065091777604,0.08300455731170436,0.9597583338484859,0.9677932403681909,0.043109444316785685,0.068541078219129,0.9677932403681909,0.8861190069094941,0.1489584600238148,0.2433392288282497,0.8861190069094941,-0.0,-0.0,1.0,0.0
0.9296176716280016,0.08975860682595864,0.09737029429967697,0.9296176716280016,NORMAL,0.9229880911833535,0.10398826727643727,0.14643978292178367,0.9229880911833535,0.8947844913404459,0.14502396014349062,0.3104339587169207,0.8947844913404459,0.9616341264027821,0.05520271932510956,0.08256054844658439,0.9616341264027821,0.9649047455578735,0.04707035346074575,0.0781176757622955,0.9649047455578735,0.9027581280368704,0.1285410816310796,0.2073852815670694,0.9027581280368704,-0.0,-0.0,1.0,0.0
0.923458557662593,0.09639228595640782,0.11218248814969656,0.923458557662593,NORMAL,0.9258765859936708,0.10038953832302384,0.14821207264868969,0.9258765859936708,0.9072015608799905,0.1269233555122749,0.2521667269507008,0.9072015608799905,0.9587456315924647,0.05910037509387112,0.09196227449679922,0.9587456315924647,0.9630289530035773,0.049108105025629636,0.08544422577501656,0.9630289530035773,0.910953145988583,0.12108528541666752,0.18399998022623185,0.910953145988583,-0.0,-0.0,1.0,0.0
0.9161878998324359,0.10367186125972674,0.12759953321813075,0.9161878998324359,NORMAL,0.9277523785479671,0.09854166322116195,0.14173891989667625,0.9277523785479671,0.910090055690308,0.12347022230275043,0.24507469384061575,0.910090055690308,0.969286908577713,0.04040367939264456,0.057493435556625255,0.969286908577713,0.9597583338484861,0.05238606735881801,0.09476180474890541,0.9597583338484861,0.9258765859936708,0.10038953832302316,0.1454354882081507,0.9258765859936708,-0.0,-0.0,1.0,0.0
0.9114236124678226,0.10901081720284482,0.13805135975716848,0.9114236124678226,NORMAL,0.9244817593928757,0.10151240125237926,0.1505227600060517,0.9244817593928757,0.9225071252298525,0.10470236510003016,0.21468783756747753,0.9225071252298525,0.969286908577713,0.04040367939264456,0.0551837426164955,0.969286908577713,0.9645226212130996,0.046425599787263114,0.08243150540048921,0.9645226212130996,0.927271412594466,0.09926283075908633,0.15536358194483607,0.927271412594466,-0.0,-0.0,1.0,0.0
0.9081529933127312,0.11187915639710273,0.14092045686930857,0.9081529933127312,NORMAL,0.9215932645825583,0.10510123762947322,0.15002200682649344,0.9215932645825583,0.927271412594466,0.09926283075908668,0.18900184431944675,0.927271412594466,0.9725575277328045,0.037049330784875587,0.051264483075387564,0.9725575277328045,0.9645226212130996,0.046425599787263114,0.07899023482668865,0.9645226212130996,0.9240007934393746,0.10222911866950013,0.15614656448023406,0.9240007934393746,-0.0,-0.0,1.0,0.0
0.9106593637782746,0.11007106661499179,0.14322214294294888,0.9106593637782746,NORMAL,0.9288639224127152,0.09778068768599561,0.13896336368459639,0.9288639224127152,0.9258765859936708,0.10038953832302316,0.18037086782579456,0.9258765859936708,0.9754460225431221,0.03302511551683668,0.0560249915101793,0.9754460225431221,0.9663984137673958,0.044379180687110165,0.06907581150087465,0.9663984137673958,0.9196186304195351,0.10591525031509579,0.15843327779756972,0.9196186304195351,-0.0,-0.0,1.0,0.0
0.9154236511428882,0.10474306467008013,0.1350800093440409,0.9154236511428882,NORMAL,0.9350230363781238,0.09111016305915103,0.14662557028231715,0.9350230363781238,0.9283829564592143,0.09850323611038554,0.17336051613154027,0.9283829564592143,0.9616341264027821,0.05520271932511027,0.09659365527368427,0.9616341264027821,0.9645226212130996,0.046425599787263114,0.07377667452598206,0.9645226212130996,0.9257777443849438,0.0993780923930831,0.15391980878865483,0.9257777443849438,-0.0,-0.0,1.0,0.0
0.9016117550025485,0.12439448007190355,0.14434078206334652,0.9016117550025485,NORMAL,0.9379115311884415,0.08741645410409639,0.15616551779181817,0.9379115311884415,0.9345420704246229,0.09184160569845158,0.164272761483118,0.9345420704246229,0.9597583338484859,0.05721706509177866,0.1059953813238991,0.9597583338484859,0.9521055516735549,0.06693659623204894,0.12984952404715105,0.9521055516735549,0.92765353693924,0.09752840817297063,0.13380990756160266,0.92765353693924,-0.0,-0.0,1.0,0.0
0.8877998588622089,0.14339539131523038,0.186973790608575,0.8877998588622089,NORMAL,0.9440706451538501,0.08060079462307683,0.13927530874920377,0.9440706451538501,0.9378126895797141,0.08879704851360919,0.160925821955627,0.9378126895797141,0.9578825412941898,0.05922311610306382,0.11219035370294936,0.9578825412941898,0.9549940464838724,0.0630920985309692,0.1242625161585906,0.9549940464838724,0.9247650421289227,0.10114417722239666,0.13462549114778957,0.9247650421289227,-0.0,-0.0,1.0,0.0
0.8910704780173003,0.14072544478111707,0.17704824714419626,0.8910704780173003,NORMAL,0.9440706451538501,0.08060079462307683,0.13927530874920374,0.9440706451538501,0.9345420704246229,0.09184160569845021,0.1679364625326757,0.9345420704246229,0.9531182539295763,0.0650755181164432,0.1256522306850364,0.9531182539295763,0.961153160449281,0.055975580506496286,0.11246037275162032,0.961153160449281,0.9371821116684671,0.08172445746092524,0.09227086724650717,0.9371821116684671,-0.0,-0.0,1.0,0.0
0.8972295919827089,0.13467508345805887,0.1641832145140344,0.8972295919827089,NORMAL,0.9473412643089413,0.07747985116365523,0.13636040586187373,0.9473412643089413,0.935936897025418,0.09068879524354809,0.17128700868985056,0.935936897025418,0.9487360909097367,0.06907934603767979,0.12504702073783613,0.9487360909097367,0.961153160449281,0.055975580506496286,0.11246037275162032,0.961153160449281,0.9371821116684671,0.08172445746092524,0.09528091768955646,0.9371821116684671,-0.0,-0.0,1.0,0.0
0.8972295919827089,0.13467508345805887,0.14988108305549577,0.8972295919827089,NORMAL,0.9473412643089413,0.07747985116365488,0.13699020208752716,0.9473412643089413,0.9378126895797141,0.08879704851360919,0.1761845749430732,0.9378126895797141,0.9439718035451229,0.0748204246630996,0.13656173650006545,0.9439718035451229,0.961153160449281,0.055975580506496286,0.11246037275162032,0.961153160449281,0.9247650421289227,0.10114417722239837,0.12398600438143145,0.9247650421289227,-0.0,-0.0,1.0,0.0
0.9033887059481177,0.12852830125439973,0.14363036077923946,0.9033887059481177,NORMAL,0.9454654717546452,0.07941686074521609,0.137363649675381,0.9454654717546452,0.9330484022151008,0.09436346795399088,0.18468924026225325,0.9330484022151008,0.9468602983554403,0.0710362741804364,0.1284086870335757,0.9468602983554403,0.9506118834640329,0.07433543004395407,0.1565058092349608,0.9506118834640329,0.9295293294935363,0.0956704291974756,0.12230610766695513,0.9295293294935363,-0.0,-0.0,1.0,0.0
0.9033887059481177,0.12852830125439973,0.13485843095467806,0.9033887059481177,NORMAL,0.9330484022151008,0.09906001973882242,0.16217441392754056,0.9330484022151008,0.9225071252298525,0.11171017468949018,0.19019477100596577,0.9225071252298525,0.9439718035451229,0.07482042466309925,0.13656173650006545,0.9439718035451229,0.9381948139244883,0.09416470883469245,0.20975626854040086,0.9381948139244883,0.9276535369392402,0.09752840817297133,0.13282849548325898,0.9276535369392402,-0.0,-0.0,1.0,0.0
0.9005002111378003,0.13193395235663805,0.14638218971770228,0.9005002111378003,NORMAL,0.9330484022151008,0.09906001973882242,0.16022725270768287,0.9330484022151008,0.9192365060747612,0.11461342426017403,0.1898542752918402,0.9192365060747612,0.9439718035451229,0.0748204246631003,0.1262847814539794,0.9439718035451229,0.9243829177841486,0.11454644488427063,0.2649538890656987,0.9243829177841486,0.92765353693924,0.09752840817297097,0.13628068192464135,0.92765353693924,-0.0,-0.0,1.0,0.0
0.9037708302928915,0.12916934359493856,0.13557050138987056,0.9037708302928915,NORMAL,0.9349241947693968,0.0971920515869845,0.15415040750714598,0.9349241947693968,0.9130773921093525,0.12099259540816866,0.197283197486367,0.9130773921093525,0.9410833087348055,0.07858009041893786,0.11901787685094264,0.9410833087348055,0.9214944229738313,0.11809409988416011,0.2766653080560433,0.9214944229738313,0.92765353693924,0.09752840817297097,0.1385903748647711,0.92765353693924,-0.0,-0.0,1.0,0.0
0.8976117163274829,0.13531511873205238,0.1431157906368534,0.8976117163274829,NORMAL,0.9349241947693968,0.09719205158698485,0.1610329486547471,0.9349241947693968,0.9025361151241041,0.13760994539292226,0.24051305038352058,0.9025361151241041,0.932888290783093,0.08672609831295677,0.1271457779913751,0.932888290783093,0.9196186304195353,0.1198869846912287,0.2817992640786889,0.9196186304195353,0.9228892495746265,0.1029795247720829,0.13920925522284275,0.9228892495746265,-0.0,-0.0,1.0,0.0
0.899006542928278,0.13428639935794384,0.14881310210366006,0.899006542928278,NORMAL,0.9349241947693968,0.09719205158698485,0.15977335620344024,0.9349241947693968,0.9163480112644437,0.11813705274451311,0.2022999699471468,0.9163480112644437,0.9314934641822981,0.0878801904848134,0.12654893363944997,0.9314934641822981,0.9148543430549214,0.12516607167512306,0.2903148452654507,0.9148543430549214,0.92539562004017,0.1011080802407235,0.13455322622735957,0.92539562004017,-0.0,-0.0,1.0,0.0
0.9072015608799905,0.12692335551227457,0.1499375935390396,0.9072015608799905,NORMAL,0.9349241947693968,0.09719205158698485,0.1569481495042768,0.9349241947693968,0.9025361151241041,0.1376099453929219,0.2532160654221924,0.9025361151241041,0.9396884821340106,0.07975867955513821,0.12374077588219655,0.9396884821340106,0.9148543430549214,0.12516607167512306,0.2903148452654507,0.9148543430549214,0.9286662391952611,0.09813227856057148,0.13487996691880225,0.9286662391952611,-0.0,-0.0,1.0,0.0
0.9221250008850783,0.10642374282118484,0.1486541467068778,0.9221250008850783,NORMAL,0.9349241947693968,0.09719205158698416,0.15970185130952652,0.9349241947693968,0.9006603225698079,0.1393153028968575,0.2540912944180636,0.9006603225698079,0.9444527694986241,0.0740719840384502,0.10901930644880267,0.9444527694986241,0.9181249622100126,0.12231822967427824,0.2680104771815361,0.9181249622100126,0.9252355086081622,0.10056046440800151,0.141927648699951,0.9252355086081622,-0.0,-0.0,1.0,0.0
0.9221250008850783,0.10642374282118484,0.15681811204094936,0.9221250008850783,NORMAL,0.9378126895797145,0.09351758160774079,0.1642628173611019,0.9378126895797145,0.9025361151241041,0.1376099453929219,0.24543852000047475,0.9025361151241041,0.936799987323693,0.08819940360800904,0.13904363100166883,0.936799987323693,0.9286662391952611,0.10518687575386491,0.20811199363113092,0.9286662391952611,0.923840682007367,0.10168208135365228,0.14311287838074546,0.923840682007367,-0.0,-0.0,1.0,0.0
0.9282841148504871,0.09986843457130751,0.1450159686339791,0.9282841148504871,NORMAL,0.9364178629789194,0.0946690402593957,0.15694850032721616,0.9364178629789194,0.9014245712593558,0.13829353919802057,0.24137915921485192,0.9014245712593558,0.9306408733582845,0.094904112870495,0.14959897069170094,0.9306408733582845,0.9410833087348057,0.08572901366849,0.15486153432569086,0.9410833087348057,0.9286049693719807,0.0962175901945863,0.12749338192800255,0.9286049693719807,-0.0,-0.0,1.0,0.0
0.9330484022151005,0.0943634679539912,0.1486558153026818,0.9330484022151005,NORMAL,0.9382936555332154,0.09278410981690476,0.15571073961107287,0.9382936555332154,0.9025361151241041,0.1376099453929219,0.24847034023854273,0.9025361151241041,0.9277523785479669,0.09854166322116294,0.1464140487557,0.9277523785479669,0.9410833087348057,0.08572901366849,0.16449777727854167,0.9410833087348057,0.9257164745616633,0.09984178026103625,0.13175023608799002,0.9257164745616633,-0.0,-0.0,1.0,0.0
0.9378126895797141,0.08879704851360919,0.15423190732366043,0.9378126895797141,NORMAL,0.9382936555332154,0.0927841098169051,0.15659688447452588,0.9382936555332154,0.9025361151241041,0.13760994539292126,0.24261331330131133,0.9025361151241041,0.9382936555332154,0.08093342405675846,0.112831354678979,0.9382936555332154,0.9458475960994192,0.0800629482677542,0.1514799091615746,0.9458475960994192,0.9257164745616633,0.09984178026103625,0.149504553987911,0.9257164745616633,-0.0,-0.0,1.0,0.0
0.9396884821340103,0.08689700702828743,0.15615721413668798,0.9396884821340103,NORMAL,0.9364178629789194,0.094669040259395,0.14819840223781833,0.9364178629789194,0.9025361151241039,0.1376099453929219,0.24847034023854273,0.9025361151241039,0.9382936555332154,0.0809334240567595,0.10003424844196507,0.9382936555332154,0.9563888730846676,0.061866175657165096,0.11239168434114111,0.9563888730846676,0.9132994050221187,0.11875087359973667,0.18715831486408596,0.9132994050221187,-0.0,-0.0,1.0,0.0
0.9396884821340103,0.08689700702828743,0.1607876004963408,0.9396884821340103,NORMAL,0.9364178629789192,0.09466904025939499,0.15182443194369322,0.9364178629789192,0.9058067342791953,0.1348575172061324,0.2318016249734796,0.9058067342791953,0.9306408733582845,0.094904112870495,0.13361694251868603,0.9306408733582845,0.9545130805303712,0.06385526437779829,0.12380021702089794,0.9545130805303712,0.9114236124678226,0.12052213326262907,0.18546750228202782,0.9114236124678226,-0.0,-0.0,1.0,0.0
0.9521055516735552,0.06693659623205,0.12808013541549104,0.9521055516735552,NORMAL,0.9316535756143057,0.10019591667899767,0.15182443194369322,0.9316535756143057,0.9086952290895127,0.1314362189743233,0.23081116989434103,0.9086952290895127,0.9306408733582843,0.09490411287049531,0.127261916945186,0.9306408733582843,0.9563888730846676,0.06186617565716545,0.11974006608902577,0.9563888730846676,0.9143121072781398,0.11702894678956394,0.1872179602737703,0.9143121072781398,-0.0,-0.0,1.0,0.0
0.9626468286588035,0.04846372413203423,0.08103556435668306,0.9626468286588035,NORMAL,0.9297777830600094,0.1020499209402935,0.14366046660962167,0.9297777830600094,0.9054246099344214,0.13421287640786086,0.23835645914132386,0.9054246099344214,0.9379115311884414,0.08741645410409637,0.11900286599554008,0.9379115311884414,0.9545130805303712,0.06385526437779829,0.12380021702089794,0.9545130805303712,0.9081529933127312,0.12334916440836739,0.1893893659002575,0.9081529933127312,-0.0,-0.0,1.0,0.0
0.9549940464838724,0.06309209853096956,0.12221198833969499,0.9549940464838724,NORMAL,0.9297777830600094,0.1020499209402935,0.1483613296347291,0.9297777830600094,0.9054246099344214,0.13421287640786086,0.24524888792804764,0.9054246099344214,0.9393063577892365,0.08625192657229501,0.1283001352781129,0.9393063577892365,0.9483539665649626,0.07086646730675754,0.1384971001758387,0.9483539665649626,0.9019938793473226,0.12957296114656955,0.18454852128980653,0.9019938793473226,-0.0,-0.0,1.0,0.0
0.942576976944328,0.08316917625016493,0.17909137844625597,0.942576976944328,NORMAL,0.9374305652349403,0.08815234083750365,0.10901675617649602,0.9374305652349403,0.9178416794739659,0.11570446056649081,0.19021528496826473,0.9178416794739659,0.9425769769443277,0.08316917625016526,0.12555895599610403,0.9425769769443277,0.9483539665649626,0.07086646730675754,0.14274491133503128,0.9483539665649626,0.888181983206983,0.14850438206913222,0.2241714793919857,0.888181983206983,-0.0,-0.0,1.0,0.0
0.942576976944328,0.08316917625016493,0.180525927002326,0.942576976944328,NORMAL,0.9393063577892365,0.08625192657229501,0.1034526082515583,0.9393063577892365,0.9240007934393746,0.10924827488395253,0.17246257372400284,0.9240007934393746,0.9364178629789192,0.08995552810367016,0.13312985974999916,0.9364178629789192,0.9454654717546452,0.07465780694015688,0.15510892457450706,0.9454654717546452,0.8852934883966657,0.15177358109577196,0.24089849482656153,0.8852934883966657,-0.0,-0.0,1.0,0.0
0.9502297591192587,0.06890567914709572,0.13365622743646968,0.9502297591192587,NORMAL,0.9316535756143055,0.10019591667899731,0.11071951285459507,0.9316535756143055,0.9196186304195351,0.1129011175031629,0.18096703477219997,0.9196186304195351,0.9393063577892365,0.08625192657229604,0.131076515447669,0.9393063577892365,0.9454654717546452,0.07465780694015688,0.15430238398911503,0.9454654717546452,0.8827871179311223,0.1533959621476184,0.23348273784579088,0.8827871179311223,-0.0,-0.0,1.0,0.0
0.9578825412941898,0.054401560277776914,0.09335494783751748,0.9578825412941898,NORMAL,0.927271412594466,0.10393030374066431,0.12048350441395408,0.927271412594466,0.9163480112644437,0.1157885201834577,0.19265386748409138,0.9163480112644437,0.9421948525995538,0.08252384031409629,0.12149991790450249,0.9421948525995538,0.9516245857200538,0.06769531798477094,0.1370853496432464,0.9516245857200538,0.8900577757612792,0.1468500974226326,0.21310077249487633,0.8900577757612792,-0.0,-0.0,1.0,0.0
0.9626468286588032,0.048463724132034224,0.0813980960769551,0.9626468286588032,NORMAL,0.927271412594466,0.10393030374066431,0.12048350441395408,0.927271412594466,0.9163480112644437,0.1157885201834577,0.19265386748409138,0.9163480112644437,0.9440706451538501,0.0806007946230765,0.10910997314640195,0.9440706451538501,0.9535003782743499,0.06572056593456599,0.13106524875714778,0.9535003782743499,0.8962168897266878,0.14085115175988583,0.2038729205161505,0.8962168897266878,-0.0,-0.0,1.0,0.0
0.967411116023417,0.042464435163225775,0.06771484497648814,0.967411116023417,NORMAL,0.9316535756143057,0.10019591667899734,0.11761194164131883,0.9316535756143057,0.9268892882496922,0.09862024165969004,0.1485379543352963,0.9268892882496922,0.9440706451538501,0.0806007946230765,0.10910997314640195,0.9440706451538501,0.9473412643089413,0.07271135545092157,0.13993071948176944,0.9473412643089413,0.8971412498482433,0.1403758894524424,0.20352579401531565,0.8971412498482433,-0.0,-0.0,1.0,0.0
0.9641404968683256,0.04578134222017374,0.074665924755664,0.9641404968683256,NORMAL,0.926889288249692,0.10566134027553564,0.1317036148490593,0.926889288249692,0.9250134956953959,0.10046586392121166,0.15020693518219083,0.9250134956953959,0.9473412643089413,0.07747985116365523,0.09829828481857023,0.9473412643089413,0.9440706451538499,0.07584876175642227,0.15791577151257769,0.9440706451538499,0.8952654572939472,0.14206181587236275,0.20954589490141426,0.8952654572939472,-0.0,-0.0,1.0,0.0
0.959376209503712,0.051742438051692076,0.08812780173775103,0.959376209503712,NORMAL,0.9221250008850783,0.11106531104900998,0.13320864007058394,0.9221250008850783,0.9112015995550564,0.12042335690011452,0.18357917100811366,0.9112015995550564,0.936799987323693,0.09531578867976402,0.12310904907072978,0.936799987323693,0.9426758185530549,0.07703587193810833,0.16568243487794043,0.9426758185530549,0.8952654572939472,0.14206181587236275,0.20954589490141426,0.8952654572939472,-0.0,-0.0,1.0,0.0
0.9469591399641675,0.07206731469934481,0.12253701793990728,0.9469591399641675,NORMAL,0.9207301742842834,0.1121662399316476,0.13832786932498098,0.9207301742842834,0.9083131047447388,0.12389133774022032,0.18535146073501968,0.9083131047447388,0.9492170568632375,0.0755345468267108,0.08270158638930512,0.9492170568632375,0.9440706451538501,0.07584876175642263,0.1645637957575428,0.9440706451538501,0.8952654572939472,0.14206181587236275,0.20954589490141426,0.8952654572939472,-0.0,-0.0,1.0,0.0
0.953118253929576,0.06507551811644355,0.10600934061756488,0.953118253929576,NORMAL,0.9236186690946008,0.10860353456997912,0.1345022352957448,0.9236186690946008,0.9083131047447388,0.1238913377402193,0.17093296222402504,0.9083131047447388,0.9521055516735552,0.07172907325408123,0.10482818188502195,0.9521055516735552,0.9426758185530549,0.07703587193810833,0.16265061463987251,0.9426758185530549,0.8952654572939472,0.14206181587236275,0.2161939191463794,0.8952654572939472,-0.0,-0.0,1.0,0.0
0.953118253929576,0.06507551811644355,0.11655356016903232,0.953118253929576,NORMAL,0.9130773921093525,0.1255886219866611,0.1795042933079929,0.9130773921093525,0.9130773921093525,0.11865244520347498,0.16668515106483245,0.9130773921093525,0.9521055516735552,0.07172907325408123,0.09978949307726703,0.9521055516735552,0.9321345415678064,0.09477938728737768,0.2009937325395737,0.9321345415678064,0.8996476203137868,0.13867679896389776,0.2181920365828474,0.8996476203137868,-0.0,-0.0,1.0,0.0
0.95124246137528,0.06705064294653466,0.12043883960795285,0.95124246137528,NORMAL,0.9207301742842834,0.11216623993164829,0.13898046357411217,0.9207301742842834,0.926889288249692,0.09862024165969036,0.1374544587038182,0.926889288249692,0.9473412643089413,0.07747985116365488,0.10741892940057583,0.9473412643089413,0.9302587490135104,0.09664545907657238,0.2061276885622193,0.9302587490135104,0.8914526023620742,0.14585164996756847,0.2341701117342706,0.8914526023620742,-0.0,-0.0,1.0,0.0
0.953118253929576,0.06507551811644355,0.11530488358530726,0.953118253929576,NORMAL,0.9236186690946008,0.10860353456997944,0.13300812594180192,0.9236186690946008,0.9268892882496922,0.09862024165969004,0.1374544587038182,0.9268892882496922,0.942576976944328,0.08316917625016355,0.120205119770008,0.942576976944328,0.9302587490135104,0.09664545907657238,0.20463357920827643,0.9302587490135104,0.8928474289628694,0.14484935787792402,0.2409520822192875,0.8928474289628694,-0.0,-0.0,1.0,0.0
0.9563888730846676,0.06186617565716615,0.11421083074336277,0.9563888730846676,NORMAL,0.9254944616488968,0.10677783086965256,0.13174853349049506,0.9254944616488968,0.925494461648897,0.09974732803020983,0.14155847737700047,0.925494461648897,0.944452769498624,0.08124650333903025,0.12785638782848038,0.944452769498624,0.9283829564592142,0.09850323611038382,0.2127757128071844,0.9283829564592142,0.880430359423325,0.16235449319944087,0.2978314723258485,0.880430359423325,-0.0,-0.0,1.0,0.0
0.9549940464838724,0.06309209853096956,0.11118792639885183,0.9549940464838724,NORMAL,0.926889288249692,0.10566134027553531,0.12788889668740488,0.926889288249692,0.9327651194790539,0.09234699423572088,0.13434858329952984,0.9327651194790539,0.9444527694986241,0.08124650333902993,0.12935049718242325,0.9444527694986241,0.9421948525995537,0.07778124935511652,0.16731749756279252,0.9421948525995537,0.8779239889577816,0.16393307503770915,0.3012666121023298,0.8779239889577816,-0.0,-0.0,1.0,0.0
0.9568698390381685,0.06110038419011195,0.10499295401980158,0.9568698390381685,NORMAL,0.9130773921093525,0.1255886219866611,0.14904696036940007,0.9130773921093525,0.9327651194790539,0.09234699423572088,0.11680472365040703,0.9327651194790539,0.944452769498624,0.08124650333902991,0.12935049718242325,0.944452769498624,0.9450833474098712,0.07401413896846627,0.15402144907286228,0.9450833474098712,0.8697289710060689,0.17063528676133843,0.29206239024838493,0.8697289710060689,-0.0,-0.0,1.0,0.0
0.9549940464838724,0.06309209853096956,0.11588878942395925,0.9549940464838724,NORMAL,0.9130773921093525,0.1255886219866611,0.15738869829166935,0.9130773921093525,0.9298766246687366,0.09600213727359719,0.11931402091389806,0.9298766246687366,0.9396884821340103,0.08689700702828707,0.12634044673937395,0.9396884821340103,0.9450833474098714,0.07401413896846629,0.15934119245604134,0.9450833474098714,0.8653468079862294,0.17370034560564318,0.28651897598416043,0.8653468079862294,-0.0,-0.0,1.0,0.0
0.9535992198830773,0.0643141767701929,0.12304969254383988,0.9535992198830773,NORMAL,0.9086952290895128,0.12910729993116776,0.16464629368278336,0.9086952290895128,0.9298766246687366,0.09600213727359719,0.11628220067583014,0.9298766246687366,0.9396884821340103,0.08689700702828707,0.13298847098433908,0.9396884821340103,0.9389242334444624,0.08088121410979658,0.16688648170302417,0.9389242334444624,0.8576940258112986,0.1856481842830147,0.28420928304403065,0.8576940258112986,-0.0,-0.0,1.0,0.0
0.9517234273287809,0.06629192722050839,0.12285298931572462,0.9517234273287809,NORMAL,0.9119658482446042,0.12629878248099058,0.16741284938949472,0.9119658482446042,0.9298766246687366,0.09600213727359719,0.10843306574838724,0.9298766246687366,0.9396884821340106,0.08689700702828572,0.13574217278958878,0.9396884821340106,0.9327651194790539,0.08765186837052526,0.17010538374121256,0.9327651194790539,0.8544234066562072,0.18800693417797784,0.3009909938430287,0.8544234066562072,-0.0,-0.0,1.0,0.0
0.9622647043140293,0.04781983934483067,0.07818867247431249,0.9622647043140293,NORMAL,0.9119658482446041,0.12629878248099058,0.17318564463858863,0.9119658482446041,0.9298766246687366,0.09600213727359685,0.1100901644393858,0.9298766246687366,0.9396884821340103,0.08689700702828707,0.12634044673937395,0.9396884821340103,0.9298766246687366,0.09132155081002956,0.18228360962015489,0.9298766246687366,0.843882129670959,0.20253091414509236,0.2898388098010714,0.843882129670959,-0.0,-0.0,1.0,0.0
0.9622647043140293,0.04781983934483032,0.08458034808147802,0.9622647043140293,NORMAL,0.9075836852247645,0.12980827187937713,0.17794586419058595,0.9075836852247645,0.919335347683488,0.11326332417970511,0.15740200000357515,0.919335347683488,0.9349241947693968,0.09248605789447853,0.14300907739262553,0.9349241947693968,0.9280008321144403,0.09318914253140127,0.18721796131943919,0.9280008321144403,0.8348957907185133,0.2087180091670404,0.28775046932525633,0.8348957907185133,-0.0,-0.0,1.0,0.0
0.9561055903486206,0.054997674311070666,0.0936306625499855,0.9561055903486206,NORMAL,0.9075836852247645,0.12980827187937713,0.17536890674507483,0.9075836852247645,0.9168289772179449,0.11508573754404487,0.15846462301563893,0.9168289772179449,0.9225071252298522,0.11171017468948947,0.16330663884699806,0.9225071252298522,0.9298766246687366,0.09132155081002921,0.17838741431365257,0.9298766246687366,0.8299818913961535,0.2107775476483562,0.2829543390852582,0.8299818913961535,-0.0,-0.0,1.0,0.0
0.9561055903486209,0.054997674311070686,0.09875080160980326,0.9561055903486209,NORMAL,0.9152364673996954,0.11651420920885429,0.13771514586889985,0.9152364673996954,0.9120646898533311,0.1203698929324115,0.16230119558412348,0.9120646898533311,0.9225071252298522,0.11171017468948846,0.18811740309915762,0.9225071252298522,0.9360357386341451,0.08459961052287318,0.16258186428924837,0.9360357386341451,0.822577562787696,0.21425231157200936,0.2783609535822102,0.822577562787696,-0.0,-0.0,1.0,0.0
0.9561055903486209,0.054997674311070686,0.10025582683132789,0.9561055903486209,NORMAL,0.9119658482446042,0.11937104952175091,0.12717317566360675,0.9119658482446042,0.9101888972990351,0.12213476271400706,0.1516617088177654,0.9101888972990351,0.919236506074761,0.11461342426017199,0.19898865222486214,0.919236506074761,0.9421948525995537,0.07778124935511652,0.1507797208822781,0.9421948525995537,0.8299818913961535,0.2107775476483562,0.281638002319513,0.8299818913961535,-0.0,-0.0,1.0,0.0
0.9579813829029169,0.052987477747382696,0.09406085445227763,0.9579813829029169,NORMAL,0.9090773534342868,0.12284592240147128,0.1417884620145282,0.9090773534342868,0.9101888972990351,0.12213476271400772,0.16022599687496317,0.9101888972990351,0.919236506074761,0.11461342426017268,0.17913509963560958,0.919236506074761,0.9389242334444624,0.08088121410979658,0.15138493082947835,0.9389242334444624,0.8449053314012415,0.19387142219223522,0.29816588391283827,0.8449053314012415,-0.0,-0.0,1.0,0.0
0.9641404968683256,0.04578134222017374,0.0769389676621283,0.9641404968683256,NORMAL,0.9104721800350819,0.12177961745528468,0.15144428735636828,0.9104721800350819,0.9115837238998302,0.12106560585749354,0.1539970443937255,0.9115837238998302,0.9316535756143055,0.09550638583257251,0.12919766169561805,0.9316535756143055,0.9421948525995538,0.07778124935511686,0.14029230758539388,0.9421948525995538,0.8525581135761725,0.18222419195767842,0.3094579649283276,0.8525581135761725,-0.0,-0.0,1.0,0.0
0.967411116023417,0.042464435163225775,0.07020926200133235,0.967411116023417,NORMAL,0.9104721800350819,0.12177961745528468,0.15966789810012416,0.9104721800350819,0.9010424469145819,0.13765000990990958,0.16534593166379802,0.9010424469145819,0.9316535756143055,0.09550638583257251,0.13345741695085156,0.9316535756143055,0.9483539665649626,0.07086646730675789,0.12990004184422896,0.9483539665649626,0.8630993905614208,0.16725022005840812,0.2621461293641382,0.8630993905614208,-0.0,-0.0,1.0,0.0
0.967411116023417,0.042464435163225775,0.06849377852900956,0.967411116023417,NORMAL,0.917742837865239,0.11469995698088624,0.146089858336564,0.917742837865239,0.8937717890844248,0.14438111372837914,0.17956638170650577,0.8937717890844248,0.9349241947693968,0.09248605789448024,0.124066522156407,0.9349241947693968,0.9483539665649626,0.07086646730675858,0.12839501662270433,0.9483539665649626,0.8727775772483941,0.16003931064088486,0.24965038438963408,0.8727775772483941,-0.0,-0.0,1.0,0.0
0.9645226212130996,0.04642559978726382,0.07677580910144957,0.9645226212130996,NORMAL,0.9221250008850785,0.11106531104900999,0.14266073612978725,0.9221250008850785,0.8937717890844248,0.1443811137283785,0.1795663817065058,0.8937717890844248,0.9349241947693968,0.09248605789448024,0.124066522156407,0.9349241947693968,0.942194852599554,0.07778124935511757,0.14017539023465597,0.942194852599554,0.8727775772483941,0.16003931064088486,0.24417011461863267,0.8727775772483941,-0.0,-0.0,1.0,0.0
0.9645226212130995,0.046425599787263815,0.07677580910144957,0.9645226212130995,NORMAL,0.9159658869196697,0.11749319617057895,0.15747292997980686,0.9159658869196697,0.8908832942741075,0.14769035023149274,0.19629465776944172,0.8908832942741075,0.9349241947693968,0.09248605789447989,0.12556063151034985,0.9349241947693968,0.9408000259987589,0.07896269040164512,0.1430198164565314,0.9408000259987589,0.8886253773750373,0.1405637174403597,0.20237170724096148,0.8886253773750373,-0.0,-0.0,1.0,0.0
0.9645226212130995,0.04642559978726311,0.0831674847086151,0.9645226212130995,NORMAL,0.9159658869196697,0.11749319617057828,0.16403947707992406,0.9159658869196697,0.8908832942741075,0.14769035023149274,0.19729792425461554,0.8908832942741075,0.9378126895797141,0.08879704851360919,0.11984464251583918,0.9378126895797141,0.9283829564592143,0.09850323611038554,0.18984080915195173,0.9283829564592143,0.8905011699293336,0.13889153406821855,0.19361069328398187,0.8905011699293336,-0.0,-0.0,1.0,0.0
0.9568698390381685,0.06110038419011195,0.12152160308770962,0.9568698390381685,NORMAL,0.9159658869196697,0.11749319617057793,0.16784327937399668,0.9159658869196697,0.9046951904144472,0.12867569418689095,0.1938941784725413,0.9046951904144472,0.9407011843900317,0.08508355440591496,0.12229545801050117,0.9407011843900317,0.9178416794739659,0.1157044605664898,0.22761269720664007,0.9178416794739659,0.8981539521042645,0.12596508539008738,0.1342715292937755,0.8981539521042645,-0.0,-0.0,1.0,0.0
0.9630289530035775,0.05395556560466976,0.10865657045754773,0.9630289530035775,NORMAL,0.9297777830600094,0.09736983200154244,0.1451801904704768,0.9297777830600094,0.9046951904144472,0.12867569418689162,0.1999233223594348,0.9046951904144472,0.9363190213701921,0.08893390945495082,0.12974975662973046,0.9363190213701921,0.9073004024887177,0.1324848874781138,0.26307489232119863,0.9073004024887177,0.9009811770913014,0.12440977303872451,0.1402111262115854,0.9009811770913014,-0.0,-0.0,1.0,0.0
0.963028953003577,0.05395556560467008,0.10865657045754773,0.963028953003577,NORMAL,0.9297777830600094,0.09736983200154108,0.1451801904704768,0.9297777830600094,0.8908832942741075,0.14769035023149274,0.22494199459008582,0.8908832942741075,0.9301599074047834,0.0956297245025258,0.14383982318181185,0.9301599074047834,0.9073004024887177,0.1324848874781138,0.25795566306680157,0.9073004024887177,0.9009811770913014,0.12440977303872451,0.1402111262115854,0.9009811770913014,-0.0,-0.0,1.0,0.0
0.9706817351785082,0.039124050445998544,0.06604559791846576,0.9706817351785082,NORMAL,0.9283829564592143,0.09850323611038485,0.14622835292541986,0.9283829564592143,0.8861190069094941,0.1526153927961923,0.2146650395439998,0.8861190069094941,0.9287650808039883,0.09676632464278345,0.15013925232850414,0.9287650808039883,0.9149531846636485,0.1192181964745084,0.21129642175174346,0.9149531846636485,0.884342055963925,0.14485308056168852,0.17947057941693328,0.884342055963925,-0.0,-0.0,1.0,0.0
0.9659174478138949,0.04516153255209607,0.07837589726688199,0.9659174478138949,NORMAL,0.9236186690946008,0.10395444787893343,0.15393926639357655,0.9236186690946008,0.8985360764490384,0.13483296489781763,0.18020711647140758,0.8985360764490384,0.9226059668385796,0.10334631246369945,0.15897910854621347,0.9226059668385796,0.9178416794739659,0.11570446056649046,0.20453027032826493,0.9178416794739659,0.884342055963925,0.1448530805616895,0.17691639732323336,0.884342055963925,-0.0,-0.0,1.0,0.0
0.9626468286588035,0.04846372413203353,0.08355468731915183,0.9626468286588035,NORMAL,0.9211122986290572,0.10581351095248631,0.1648130431199212,0.9211122986290572,0.8996476203137865,0.1341483718995858,0.18184282184677492,0.8996476203137865,0.917841679473966,0.1087320919558725,0.1730935797774317,0.917841679473966,0.9130773921093525,0.12099259540816766,0.20878899735503934,0.9130773921093525,0.8876126751190162,0.1422030012823118,0.1813388757043947,0.8876126751190162,-0.0,-0.0,1.0,0.0
0.959376209503712,0.05174243805169137,0.0871820114646137,0.959376209503712,NORMAL,0.9211122986290572,0.10581351095248631,0.1648130431199212,0.9211122986290572,0.9015234128680828,0.13243480688465759,0.1845866133412354,0.9015234128680828,0.917841679473966,0.1087320919558725,0.18925869156827513,0.917841679473966,0.9086952290895128,0.12453333121752182,0.20358947702614974,0.9086952290895128,0.8890075017198115,0.14120125493491015,0.18193572005631986,0.8890075017198115,-0.0,-0.0,1.0,0.0
0.9622647043140296,0.047819839344830334,0.07316089953413936,0.9622647043140296,NORMAL,0.9316535756143055,0.0884290953892943,0.15059129863762644,0.9316535756143055,0.9044119076784002,0.12902594355459868,0.17845128637186947,0.9044119076784002,0.9145710603188746,0.11162719529897903,0.1936081430116752,0.9145710603188746,0.9025361151241039,0.13075384523995515,0.21536985063810135,0.9025361151241039,0.8890075017198115,0.14120125493491015,0.1911497858792143,0.8890075017198115,-0.0,-0.0,1.0,0.0
0.9684238182794381,0.04054558349798973,0.06159043387470398,0.9684238182794381,NORMAL,0.9364178629789192,0.08284204583296077,0.13304743898850363,0.9364178629789192,0.9087940706982397,0.12552924730287102,0.17383963031481162,0.9087940706982397,0.9063760423671621,0.1192062953680871,0.21636792936368932,0.9063760423671621,0.9054246099344214,0.12733483385349956,0.20300583739862557,0.9054246099344214,0.8951666156852199,0.13517259518835284,0.18237946271031197,0.8951666156852199,-0.0,-0.0,1.0,0.0
0.9578825412941898,0.05922311610306312,0.1024509484220435,0.9578825412941898,NORMAL,0.9408000259987589,0.07896269040164547,0.13017587621586835,0.9408000259987589,0.9076825268334916,0.1262347062748293,0.17606973771488663,0.9076825268334916,0.8987232601922314,0.13232880772500197,0.24418874405889818,0.8987232601922314,0.917841679473966,0.10873209195587215,0.16535207652245063,0.917841679473966,0.8999309030498336,0.130088073600713,0.18451428415749005,0.8999309030498336,-0.0,-0.0,1.0,0.0
0.9549940464838724,0.0630920985309685,0.11184175860467654,0.9549940464838724,NORMAL,0.9546119221390984,0.0576420810601457,0.09224373069574732,0.9546119221390984,0.9044119076784002,0.12902594355459904,0.1684990720432013,0.9044119076784002,0.9016117550025486,0.12893279371900826,0.22412473321884746,0.9016117550025486,0.9226059668385796,0.10334631246369913,0.15250907989843523,0.9226059668385796,0.8922781208749028,0.14300951649853727,0.23714586310485847,0.8922781208749028,-0.0,-0.0,1.0,0.0
0.9488349325184635,0.07011219567483905,0.11202884040479699,0.9488349325184635,NORMAL,0.959376209503712,0.05174243805169102,0.0779662701274734,0.959376209503712,0.9091761950430137,0.12384206238654787,0.16235280653458697,0.9091761950430137,0.9048823741576398,0.12615271789382743,0.21977528177544742,0.9048823741576398,0.9226059668385796,0.10334631246369742,0.1508519812074367,0.9226059668385796,0.8922781208749028,0.14300951649853727,0.23714586310485847,0.8922781208749028,-0.0,-0.0,1.0,0.0
0.9488349325184635,0.07011219567483941,0.10664040861113874,0.9488349325184635,NORMAL,0.9622647043140293,0.04781983934483032,0.0683896725843069,0.9622647043140293,0.9091761950430137,0.12384206238654787,0.1591569687310042,0.9091761950430137,0.8943410971723915,0.14253373696735572,0.25692828947206414,0.8943410971723915,0.9302587490135106,0.08957876440969742,0.10266491664737608,0.9302587490135106,0.8904023283206066,0.14467755431827728,0.2301243912720395,0.8904023283206066,-0.0,-0.0,1.0,0.0
0.9488349325184635,0.07011219567483941,0.09612895933408325,0.9488349325184635,NORMAL,0.9622647043140293,0.04781983934483032,0.06743296644358776,0.9622647043140293,0.901523412868083,0.13697267585664363,0.2070876846532652,0.901523412868083,0.889958934152552,0.14587177943046142,0.25666082069569984,0.889958934152552,0.9302587490135104,0.08957876440969809,0.10863725427968633,0.9302587490135104,0.8842432143551978,0.15059819728258517,0.22565602250387673,0.8842432143551978,-0.0,-0.0,1.0,0.0
0.9459464377081461,0.07390797940234582,0.09988506031451247,0.9459464377081461,NORMAL,0.967028991678643,0.04181992211606055,0.06087546234426545,0.967028991678643,0.8986349180577656,0.14034251505825068,0.22572814741663919,0.8986349180577656,0.889958934152552,0.14587177943046176,0.2886231788558173,0.889958934152552,0.9302587490135106,0.08957876440969742,0.10863725427968632,0.9302587490135106,0.8915138721853547,0.1440144720429814,0.2194366681173562,0.8915138721853547,-0.0,-0.0,1.0,0.0
0.9492170568632373,0.07075660920630408,0.09453125221733448,0.9492170568632373,NORMAL,0.9699174864889604,0.037834017285121,0.0555557189610864,0.9699174864889604,0.8953642989026742,0.14304535333816554,0.22942603283936716,0.8953642989026742,0.8918347267068483,0.14420739091032633,0.2744609443708107,0.8918347267068483,0.9226059668385796,0.10334631246369777,0.11847020046065243,0.9226059668385796,0.8896380796310585,0.1456784479041299,0.2136638728682623,0.8896380796310585,-0.0,-0.0,1.0,0.0
0.9510928494175338,0.06879356820630232,0.09327165976602761,0.9510928494175338,NORMAL,0.967028991678643,0.04181992211605984,0.06915749291670545,0.967028991678643,0.8978706693682178,0.14135864430742612,0.22633034054308235,0.8978706693682178,0.8932295533076434,0.14320190278926798,0.26510565900587924,0.8932295533076434,0.9149531846636487,0.11687323875145154,0.14885705673379063,0.9149531846636487,0.8834789656656499,0.15158531964540084,0.2293291750961951,0.8834789656656499,-0.0,-0.0,1.0,0.0
0.9558571367821472,0.06297354613580633,0.08795191638284855,0.9558571367821472,NORMAL,0.9564877146933947,0.06045508691860833,0.10858354351978644,0.9564877146933947,0.901141288523309,0.13863920755065404,0.22263245512035437,0.901141288523309,0.8966602838947422,0.14104739249844092,0.2600543001667846,0.8966602838947422,0.91822380381874,0.11399534984089325,0.14968139145319648,0.91822380381874,0.8823674218009016,0.15222963978597062,0.22647107846344833,0.8823674218009016,-0.0,-0.0,1.0,0.0
0.9572519633829424,0.06174617756800709,0.08945564716478621,0.9572519633829424,NORMAL,0.9593762095037122,0.05657151234019883,0.09551917277739111,0.9593762095037122,0.901141288523309,0.1386392075506547,0.21896981042817387,0.901141288523309,0.8817368438896546,0.16029807831165468,0.295539321433739,0.8817368438896546,0.9287650808039882,0.09676632464278447,0.13295311539026058,0.9287650808039882,0.8867495848207412,0.14896378410279737,0.22695992135819257,0.8867495848207412,-0.0,-0.0,1.0,0.0
0.9553761708286463,0.06373751912897853,0.09616331681943566,0.9553761708286463,NORMAL,0.9641404968683256,0.05063439781798156,0.088950752810487,0.9641404968683256,0.9073004024887177,0.13248488747811446,0.21423405749545832,0.9073004024887177,0.8798610513353583,0.16190243574967506,0.3111956652726885,0.8798610513353583,0.9335293681686018,0.09124207779300343,0.1280527099819368,0.9335293681686018,0.8991666543602856,0.13111472207188346,0.19595418472698273,0.8991666543602856,-0.0,-0.0,1.0,0.0
0.9535003782743499,0.06572056593456599,0.10607774014524968,0.9535003782743499,NORMAL,0.9641404968683258,0.05063439781798157,0.08348187210043995,0.9641404968683258,0.9211122986290572,0.11281072476554516,0.17180766248913437,0.9211122986290572,0.8817368438896546,0.16029807831165438,0.3130632222144852,0.8817368438896546,0.9287650808039882,0.09676632464278447,0.1419585958291438,0.9287650808039882,0.8991666543602856,0.13111472207188313,0.1912286508116106,0.8991666543602856,-0.0,-0.0,1.0,0.0
0.9535003782743499,0.06572056593456668,0.0979356065463417,0.9535003782743499,NORMAL,0.967411116023417,0.047333953607113045,0.07747429373758222,0.967411116023417,0.9258765859936711,0.1074229439635129,0.16049372706681492,0.9258765859936711,0.8828483877544029,0.15966466338310234,0.3125013523819797,0.8828483877544029,0.9364178629789192,0.08284204583295939,0.11714783157698423,0.9364178629789192,0.9053257683256942,0.12492639813321722,0.18894617903405223,0.9053257683256942,-0.0,-0.0,1.0,0.0
0.9458475960994192,0.0800629482677542,0.16084414053979618,0.9458475960994192,NORMAL,0.9735702299888256,0.04001469253998124,0.06460926110742032,0.9735702299888256,0.9287650808039883,0.10382167268466844,0.1541020514596494,0.9287650808039883,0.8828483877544029,0.15966466338310265,0.3076147019963388,0.8828483877544029,0.9364178629789192,0.08284204583295939,0.11814118775136885,0.9364178629789192,0.895647581638721,0.13291533068924313,0.1844311033694783,0.895647581638721,-0.0,-0.0,1.0,0.0
0.942576976944328,0.08316917625016458,0.17016447405697463,0.942576976944328,NORMAL,0.9735702299888256,0.04001469253998088,0.06787566018826921,0.9735702299888256,0.92765353693924,0.10457531239090845,0.1558997176112579,0.92765353693924,0.8847241803086989,0.15804777839290657,0.29271836106999316,0.8847241803086989,0.9302587490135104,0.0895787644096974,0.13213771340339,0.9302587490135104,0.8942527550379259,0.13394077466905085,0.17085030906262855,0.8942527550379259,-0.0,-0.0,1.0,0.0
0.9473412643089413,0.07747985116365455,0.16014386764868815,0.9473412643089413,NORMAL,0.976458724799143,0.03599486861717119,0.062102864939175315,0.976458724799143,0.92765353693924,0.10457531239090845,0.16404185121016587,0.92765353693924,0.8891063433285384,0.1547980376693065,0.2742665359618141,0.8891063433285384,0.9302587490135104,0.0895787644096974,0.1351477638464393,0.9302587490135104,0.9010424469145817,0.12939604145143818,0.16830830346487047,0.9010424469145817,-0.0,-0.0,1.0,0.0
0.9521055516735552,0.07172907325408227,0.15350675927130483,0.9521055516735552,NORMAL,0.976458724799143,0.03599486861717155,0.060608755585232474,0.976458724799143,0.92765353693924,0.10457531239090845,0.16404185121016587,0.92765353693924,0.8996476203137868,0.13867679896389842,0.2261947820968324,0.8996476203137868,0.9331472438238277,0.08590193445050201,0.12574603779622448,0.9331472438238277,0.9010424469145819,0.1293960414514382,0.17891263411249259,0.9010424469145819,-0.0,-0.0,1.0,0.0
0.9521055516735552,0.07172907325408054,0.15819670642883044,0.9521055516735552,NORMAL,0.976458724799143,0.03599486861717119,0.055989369704972966,0.976458724799143,0.9152364673996954,0.12346678737053378,0.2100254059125692,0.9152364673996954,0.8996476203137868,0.13867679896389842,0.22958745854092655,0.8996476203137868,0.9364178629789192,0.08284204583295973,0.11814118775136884,0.9364178629789192,0.8905011699293336,0.14565621096597292,0.19964141569761637,0.8905011699293336,-0.0,-0.0,1.0,0.0
0.9521055516735552,0.07172907325408227,0.15137193782412675,0.9521055516735552,NORMAL,0.9745829322448469,0.03808052495609335,0.058743071510222664,0.9745829322448469,0.9228892495746265,0.1099902371625885,0.17105240717540304,0.9228892495746265,0.8967591255034693,0.1420323014950772,0.21342234675008312,0.8967591255034693,0.9436885208090761,0.07520547259131496,0.11107127525924176,0.9436885208090761,0.893389664739651,0.14234220142644965,0.17443440583412517,0.893389664739651,-0.0,-0.0,1.0,0.0
0.948834932518464,0.07488820985079225,0.15600232418377957,0.948834932518464,NORMAL,0.9716944374345291,0.04208601220847474,0.063525411680178,0.9716944374345291,0.9257777443849438,0.10641074718498329,0.16597996942922869,0.9257777443849438,0.8996476203137868,0.13867679896389842,0.22269502975420277,0.8996476203137868,0.9469591399641675,0.07206731469934446,0.10737338983651376,0.9469591399641675,0.891994838138856,0.14334929251551107,0.18075478826642638,0.891994838138856,-0.0,-0.0,1.0,0.0
0.948834932518464,0.07488820985079225,0.15002998655146932,0.948834932518464,NORMAL,0.9669301500699158,0.04811570297671431,0.06281601117646356,0.9669301500699158,0.92765353693924,0.10457531239090845,0.17299052539446585,0.92765353693924,0.9044119076784004,0.133578351928212,0.21312747521183115,0.9044119076784004,0.9502297591192589,0.06890567914709504,0.10676817988931349,0.9502297591192589,0.891994838138856,0.14334929251551107,0.1751786962454478,0.891994838138856,-0.0,-0.0,1.0,0.0
0.9564877146933947,0.060455086918606925,0.11388125089681903,0.9564877146933947,NORMAL,0.9669301500699158,0.04811570297671431,0.06281601117646356,0.9669301500699158,0.9243829177841488,0.10752438586877335,0.1861714674603001,0.9243829177841488,0.9076825268334916,0.13080357749452137,0.20231578688399943,0.9076825268334916,0.9473412643089415,0.07271135545092264,0.12042676009951579,0.9473412643089415,0.8952654572939472,0.14066163605453433,0.1699430999385947,0.8952654572939472,-0.0,-0.0,1.0,0.0
0.959376209503712,0.05657151234019918,0.10271815098727996,0.959376209503712,NORMAL,0.9793472196094603,0.02702096047269,0.033757435765111435,0.9793472196094603,0.9287650808039883,0.10382167268466774,0.17736295646066003,0.9287650808039883,0.9076825268334916,0.13080357749452137,0.1894350219287964,0.9076825268334916,0.936799987323693,0.09060035307958464,0.15808052097569075,0.936799987323693,0.8966602838947422,0.1396450311957354,0.16511682686023635,0.8966602838947422,-0.0,-0.0,1.0,0.0
0.9564877146933944,0.060455086918607966,0.10360429585073297,0.9564877146933944,NORMAL,0.976458724799143,0.031079808523950883,0.03430575484591695,0.976458724799143,0.933529368168602,0.09833361766231861,0.16928951127223124,0.933529368168602,0.9076825268334916,0.13080357749452137,0.18385892990781777,0.9076825268334916,0.9320356999590794,0.09615058254852496,0.1738520908979075,0.9320356999590794,0.9072015608799905,0.12317941695180434,0.1537679395901638,0.9072015608799905,-0.0,-0.0,1.0,0.0
0.9670289916786432,0.04181992211605985,0.05479843554441224,0.9670289916786432,NORMAL,0.9783345173534392,0.028976415521972818,0.03005794368672439,0.9783345173534392,0.9316535756143057,0.10019591667899767,0.1711680067532763,0.9316535756143057,0.9101888972990351,0.1290489970957999,0.18054509572445335,0.9101888972990351,0.9243829177841485,0.10989351130431857,0.20131037387284434,0.9243829177841485,0.9072015608799905,0.12317941695180434,0.1537679395901638,0.9072015608799905,-0.0,-0.0,1.0,0.0
0.9731881056440518,0.03446865173467557,0.04553766282510661,0.9731881056440518,NORMAL,0.9783345173534392,0.02897641552197246,0.030595346899948108,0.9783345173534392,0.925494461648897,0.1067778308696519,0.15682127934732323,0.925494461648897,0.9226059668385796,0.11035487290174864,0.14005624050999232,0.9226059668385796,0.9305420317495572,0.10334191180772431,0.1919560602534785,0.9305420317495572,0.9119658482446041,0.1179447505789524,0.14806381007988254,0.9119658482446041,-0.0,-0.0,1.0,0.0
0.9750638981983479,0.032379222623238536,0.03820122517326287,0.9750638981983479,NORMAL,0.9754460225431216,0.033025115516837025,0.03201889497662484,0.9754460225431216,0.9236186690946009,0.10860353456997845,0.1564468035310103,0.9236186690946009,0.9101888972990351,0.1290489970957999,0.1564903769322745,0.9101888972990351,0.9429591012891015,0.08381500829262542,0.14276575187991064,0.9429591012891015,0.9119658482446041,0.1179447505789524,0.16560766972900534,0.9119658482446041,-0.0,-0.0,1.0,0.0
0.9750638981983479,0.032379222623238536,0.038201225173262875,0.9750638981983479,NORMAL,0.9706817351785082,0.03912405044599819,0.04629635554489876,0.9706817351785082,0.9207301742842832,0.11216623993164657,0.16624477519255673,0.9207301742842832,0.9240007934393748,0.10924827488395256,0.12968574456384604,0.9240007934393748,0.9415642746883066,0.08498867078758032,0.14990261901961996,0.9415642746883066,0.9167301356092177,0.11264863138303711,0.15409295396677603,0.9167301356092177,-0.0,-0.0,1.0,0.0
0.9750638981983478,0.03237922262323853,0.042820611053522376,0.9750638981983478,NORMAL,0.9659174478138947,0.04516153255209677,0.04779046489884162,0.9659174478138947,0.9145710603188746,0.11857471870715754,0.1716808856281918,0.9145710603188746,0.9316535756143055,0.09550638583257251,0.11214188491472324,0.9316535756143055,0.936799987323693,0.09060035307958464,0.15866363297659958,0.936799987323693,0.9167301356092177,0.11264863138303746,0.15867568981337005,0.9167301356092177,-0.0,-0.0,1.0,0.0
0.9783345173534393,0.02897641552197246,0.04299433465884354,0.9783345173534393,NORMAL,0.9659174478138947,0.04516153255209677,0.04928457425278447,0.9659174478138947,0.9207301742842832,0.11216623993164657,0.15967822809243953,0.9207301742842832,0.9302587490135104,0.09664545907657272,0.10744102188961582,0.9302587490135104,0.9367999873236932,0.09060035307958432,0.15522236240279902,0.9367999873236932,0.9167301356092177,0.11264863138303778,0.1688711677146082,0.9167301356092177,-0.0,-0.0,1.0,0.0
0.9754460225431221,0.03302511551683561,0.045304027598973284,0.9754460225431221,NORMAL,0.9659174478138947,0.04516153255209606,0.04779046489884162,0.9659174478138947,0.9207301742842836,0.1121662399316473,0.15759081907611042,0.9207301742842836,0.9302587490135106,0.09664545907657275,0.10832716675306883,0.9302587490135106,0.9492170568632375,0.07075660920630375,0.11993791720477155,0.9492170568632375,0.9167301356092177,0.11264863138303746,0.15867568981337005,0.9167301356092177,-0.0,-0.0,1.0,0.0
0.9754460225431218,0.033025115516835596,0.045304027598973284,0.9754460225431218,NORMAL,0.9706817351785082,0.039124050445998544,0.03201889497662484,0.9706817351785082,0.917841679473966,0.11570446056648946,0.15539635221924805,0.917841679473966,0.9335293681686018,0.09363464490821866,0.1024133335612542,0.9335293681686018,0.9492170568632375,0.07075660920630375,0.11993791720477155,0.9492170568632375,0.9228279797513459,0.10808659231227946,0.15350299154215924,0.9228279797513459,-0.0,-0.0,1.0,0.0
0.9735702299888256,0.03511417184838718,0.048057729404222996,0.9735702299888256,NORMAL,0.9645226212130996,0.046425599787264175,0.03410630399295393,0.9645226212130996,0.917841679473966,0.11570446056649014,0.17524990480850058,0.917841679473966,0.9396884821340103,0.08689700702828707,0.10333597498797441,0.9396884821340103,0.9506118834640327,0.06955047148514268,0.11770955485753326,0.9506118834640327,0.9281345028927411,0.10385655979555534,0.15161743253448953,0.9281345028927411,-0.0,-0.0,1.0,0.0
0.9735702299888256,0.03511417184838718,0.048057729404222996,0.9735702299888256,NORMAL,0.9626468286588032,0.048463724132033516,0.03455031285807389,0.9626468286588032,0.9207301742842836,0.1121662399316473,0.17186827964438436,0.9207301742842836,0.9444527694986241,0.08124650333902993,0.09869473470088475,0.9444527694986241,0.9535003782743499,0.06572056593456599,0.10962706666830961,0.9535003782743499,0.9300102954470372,0.10201020462587214,0.16420408052070531,0.9300102954470372,-0.0,-0.0,1.0,0.0
0.9706817351785082,0.03912405044599819,0.05745945545443783,0.9706817351785082,NORMAL,0.9521055516735549,0.0669365962320493,0.06344305977726925,0.9521055516735549,0.9236186690946009,0.10860353456997877,0.17105269605819745,0.9236186690946009,0.9463285620529203,0.0793155356725134,0.10619613353489094,0.9463285620529203,0.9563888730846676,0.06186617565716545,0.10481097755993482,0.9563888730846676,0.924703772305642,0.10626177504238116,0.15912645331685032,0.924703772305642,-0.0,-0.0,1.0,0.0
0.9645226212130996,0.046425599787263114,0.06136771451615245,0.9645226212130996,NORMAL,0.9568698390381685,0.06110038419011125,0.07482973805019594,0.9568698390381685,0.9283829564592143,0.1031763041107309,0.16447336022371156,0.9283829564592143,0.951092849417534,0.07358094773438281,0.10619613353489094,0.951092849417534,0.959277367894985,0.05798730065293924,0.09949123417675576,0.959277367894985,0.9186059281635139,0.11084809259461803,0.16234743944649038,0.9186059281635139,-0.0,-0.0,1.0,0.0
0.967411116023417,0.042464435163225414,0.05497603890898691,0.967411116023417,NORMAL,0.9568698390381685,0.06110038419011195,0.07305744832328992,0.9568698390381685,0.9316535756143055,0.10019591667899766,0.15752137063911495,0.9316535756143055,0.9492170568632378,0.07553454682671049,0.11370744267968635,0.9492170568632378,0.9560067487398934,0.06122087235896537,0.10615037856028559,0.9560067487398934,0.9012749593016098,0.13230890231138356,0.1962926652434834,0.9012749593016098,-0.0,-0.0,1.0,0.0
0.967411116023417,0.042464435163225775,0.050018827246079915,0.967411116023417,NORMAL,0.967411116023417,0.042464435163225775,0.04424617854894247,0.967411116023417,0.9349241947693968,0.09719205158698485,0.15051073006206625,0.9349241947693968,0.9492170568632378,0.07553454682671049,0.12440367376048275,0.9492170568632378,0.9498476347744849,0.06826138291544136,0.11520069302879307,0.9498476347744849,0.9012749593016098,0.13230890231138356,0.1962926652434834,0.9012749593016098,-0.0,-0.0,1.0,0.0
0.9645226212130996,0.04642559978726382,0.0541008099131157,0.9645226212130996,NORMAL,0.9655353234691207,0.044516896178423734,0.04082676238197207,0.9655353234691207,0.9367999873236932,0.0953157886797644,0.14626291890287368,0.9367999873236932,0.9492170568632375,0.0755345468267108,0.11970281073537532,0.9492170568632375,0.9498476347744849,0.06826138291544136,0.10900572064974282,0.9498476347744849,0.9061888586239694,0.12944039948070796,0.19033408263385604,0.9061888586239694,-0.0,-0.0,1.0,0.0
0.9597583338484859,0.052386067358818,0.06286182387009531,0.9597583338484859,NORMAL,0.9626468286588032,0.048463724132033516,0.04482726790415994,0.9626468286588032,0.9367999873236932,0.09531578867976405,0.14626291890287368,0.9367999873236932,0.9492170568632375,0.07553454682671046,0.12147510046228135,0.9492170568632375,0.9498476347744849,0.0682613829154417,0.10751161129579995,0.9498476347744849,0.9122867027660976,0.12506074086762164,0.1887874140685201,0.9122867027660976,-0.0,-0.0,1.0,0.0
0.9626468286588035,0.04846372413203423,0.05735629312638279,0.9626468286588035,NORMAL,0.9626468286588032,0.048463724132033516,0.039251175883181305,0.9626468286588032,0.9367999873236932,0.09531578867976405,0.14626291890287368,0.9367999873236932,0.9539813442278514,0.06976113749132531,0.12147510046228135,0.9539813442278514,0.957500416949416,0.053758303750537514,0.08439165962569853,0.957500416949416,0.9104109102118014,0.12681651670779565,0.19321009672066433,0.9104109102118014,-0.0,-0.0,1.0,0.0
0.967411116023417,0.042464435163225775,0.04353188442402372,0.967411116023417,NORMAL,0.9655353234691206,0.044516896178423734,0.03773523479407487,0.9655353234691206,0.9415642746883068,0.08972808769706044,0.12810017889567926,0.9415642746883068,0.9539813442278514,0.0697611374913267,0.11512007488878129,0.9539813442278514,0.9469591399641675,0.07206731469934446,0.10043049405329668,0.9469591399641675,0.9043130660696731,0.13117189683940342,0.1876865639110788,0.9043130660696731,-0.0,-0.0,1.0,0.0
0.9702996108337344,0.0384787858123635,0.03218299715395118,0.9702996108337344,NORMAL,0.951723427328781,0.06629192722050875,0.061776221235237454,0.951723427328781,0.9415642746883068,0.08972808769706113,0.13395445128962105,0.9415642746883068,0.9539813442278514,0.06976113749132565,0.1209743472827231,0.9539813442278514,0.9345420704246229,0.09184160569845021,0.16145142762476625,0.9345420704246229,0.9148543430549214,0.11444087541607295,0.14533194000979643,0.9148543430549214,-0.0,-0.0,1.0,0.0
0.9702996108337344,0.038478785812363143,0.029873304213821433,0.9702996108337344,NORMAL,0.9393063577892365,0.08625192657229604,0.10413084513651985,0.9393063577892365,0.9415642746883068,0.08972808769706113,0.13395445128962105,0.9415642746883068,0.9539813442278512,0.06976113749132529,0.12441561785652369,0.9539813442278512,0.9283829564592142,0.09850323611038417,0.17911059796896792,0.9283829564592142,0.9100900556903079,0.11971436318617709,0.15103606952007767,0.9100900556903079,-0.0,-0.0,1.0,0.0
0.967411116023417,0.042464435163225775,0.03342075787009445,0.967411116023417,NORMAL,0.9374305652349405,0.08815234083750505,0.10154297182342692,0.9374305652349405,0.9477233886537155,0.08289673062326432,0.12229044473012546,0.9477233886537155,0.9553761708286463,0.06854645899709026,0.12116174129891565,0.9553761708286463,0.9178416794739659,0.1157044605664898,0.19019222073365907,0.9178416794739659,0.911484882291103,0.11864165331395135,0.15479503778452602,0.911484882291103,-0.0,-0.0,1.0,0.0
0.9702996108337344,0.03847878581236385,0.04101354415973777,0.9702996108337344,NORMAL,0.9345420704246231,0.09184160569845091,0.10405226908691798,0.9345420704246231,0.9582646656389638,0.06469227145088839,0.08286439412704447,0.9582646656389638,0.9553761708286463,0.06854645899709026,0.12116174129891563,0.9553761708286463,0.917841679473966,0.11570446056649014,0.19184931942465763,0.917841679473966,0.910090055690308,0.1197143631861781,0.16297012325716226,0.910090055690308,-0.0,-0.0,1.0,0.0
0.967411116023417,0.042464435163225414,0.043323237099867525,0.967411116023417,NORMAL,0.9297777830600095,0.09736983200154245,0.10554637844086083,0.9297777830600095,0.9568698390381687,0.0659168425214432,0.08588375378201649,0.9568698390381687,0.9524876760183287,0.07237616181646718,0.12648148468209466,0.9524876760183287,0.9116825655085573,0.12206422536842641,0.20233512606588278,0.9116825655085573,0.9051761563679482,0.12265384373923964,0.16147414103643254,0.9051761563679482,-0.0,-0.0,1.0,0.0
0.967411116023417,0.042464435163225775,0.04591111041296045,0.967411116023417,NORMAL,0.9345420704246231,0.09184160569845091,0.10041429528500213,0.9345420704246231,0.9568698390381687,0.0659168425214432,0.08588375378201649,0.9568698390381687,0.9477233886537154,0.0781263114660785,0.13411092100540348,0.9477233886537154,0.9084119463534659,0.12488677660206517,0.20217240293995492,0.9084119463534659,0.901905537212857,0.12544776426263574,0.15533802392081725,0.901905537212857,-0.0,-0.0,1.0,0.0
0.9655353234691207,0.044516896178423734,0.04652999077103207,0.9655353234691207,NORMAL,0.9407011843900317,0.08508355440591496,0.09930457205816148,0.9407011843900317,0.9568698390381685,0.06591684252144353,0.08918680289653086,0.9568698390381685,0.944834893843398,0.08189270816137731,0.12233985660537458,0.944834893843398,0.9084119463534659,0.12488677660206549,0.19705226388013716,0.9084119463534659,0.8971412498482435,0.13057104101188,0.16067962171082645,0.8971412498482435,-0.0,-0.0,1.0,0.0
0.967411116023417,0.042464435163225414,0.04475770104412604,0.967411116023417,NORMAL,0.9374305652349403,0.08815234083750469,0.09763297899881533,0.9374305652349403,0.9549940464838723,0.06789911495462773,0.09771332262254107,0.9549940464838723,0.944834893843398,0.08189270816137731,0.12233985660537458,0.944834893843398,0.8934885063483782,0.14472117588444908,0.24734016978518844,0.8934885063483782,0.8971412498482435,0.1305710410118797,0.14721774472873944,0.8971412498482435,-0.0,-0.0,1.0,0.0
0.9568698390381685,0.061100384190111594,0.08649344458733682,0.9568698390381685,NORMAL,0.9393063577892363,0.08625192657229602,0.102530545252038,0.9393063577892363,0.9549940464838723,0.06789911495462773,0.09771332262254104,0.9549940464838723,0.944834893843398,0.08189270816137731,0.1317415826555894,0.944834893843398,0.8934885063483782,0.14472117588445008,0.24433011934213913,0.8934885063483782,0.9006603225698081,0.1287565087066877,0.14968996131945447,0.9006603225698081,-0.0,-0.0,1.0,0.0
0.9568698390381685,0.0611003841901123,0.09437922954844519,0.9568698390381685,NORMAL,0.9411821503435328,0.0843432175517045,0.10037386939802978,0.9411821503435328,0.9521055516735549,0.07172907325408087,0.10480535573262612,0.9521055516735549,0.944834893843398,0.08189270816137731,0.1350079817364383,0.944834893843398,0.9073004024887177,0.12559259549771618,0.22932923703634003,0.9073004024887177,0.9048823741576398,0.12615271789382743,0.14634474953778748,0.9048823741576398,-0.0,-0.0,1.0,0.0
0.9568698390381685,0.06110038419011265,0.09288512019450235,0.9568698390381685,NORMAL,0.9379115311884415,0.08741645410409742,0.10683740072204839,0.9379115311884415,0.9502297591192587,0.07368871426145357,0.10541332022311595,0.9502297591192587,0.9495991812080115,0.07618137990902023,0.14058407375741694,0.9495991812080115,0.9073004024887177,0.12559259549771618,0.22588796646253947,0.9073004024887177,0.9048823741576401,0.12615271789382748,0.14755262797585053,0.9048823741576401,-0.0,-0.0,1.0,0.0
0.9568698390381685,0.06110038419011195,0.09288512019450235,0.9568698390381685,NORMAL,0.9408000259987589,0.08369826042221987,0.10841008612559314,0.9408000259987589,0.9473412643089413,0.07747985116365523,0.11268022482615271,0.9473412643089413,0.9477233886537154,0.0781263114660785,0.13739915182141596,0.9477233886537154,0.9105710216438091,0.1227771289711964,0.21093473466979917,0.9105710216438091,0.8976117163274829,0.13301460591698103,0.1539245169230439,0.8976117163274829,-0.0,-0.0,1.0,0.0
0.9521055516735552,0.06693659623204966,0.0960700421305033,0.9521055516735552,NORMAL,0.9379115311884415,0.08741645410409742,0.11550211923567821,0.9379115311884415,0.9492170568632375,0.07553454682670976,0.11761558208222957,0.9492170568632375,0.944834893843398,0.08189270816137903,0.14786189422803547,0.944834893843398,0.9000297446585608,0.13931994944542483,0.24363128388306712,0.9000297446585608,0.8976117163274829,0.13301460591698103,0.1539245169230439,0.8976117163274829,-0.0,-0.0,1.0,0.0
0.9549940464838724,0.06309209853096956,0.09376034919037354,0.9549940464838724,NORMAL,0.9335293681686017,0.09124207779300343,0.11806976746926662,0.9335293681686017,0.9473412643089413,0.07747985116365384,0.12186339324142213,0.9473412643089413,0.9553761708286463,0.06373751912897888,0.10232234839075213,0.9553761708286463,0.8876126751190162,0.15707668127281527,0.2553645572802419,0.8876126751190162,0.8990065429282781,0.13198231170487565,0.15085871658278854,0.8990065429282781,-0.0,-0.0,1.0,0.0
0.9578825412941898,0.059223116103063474,0.08595604137411308,0.9578825412941898,NORMAL,0.933529368168602,0.09124207779300346,0.11860717068249033,0.933529368168602,0.9454654717546452,0.07941686074521505,0.1248138209464537,0.9454654717546452,0.9582646656389637,0.0598687921811497,0.09423986020152847,0.9582646656389637,0.8876126751190162,0.1570766812728146,0.24616243555338835,0.8876126751190162,0.8961180481179608,0.13535628892955257,0.15874450154389694,0.8961180481179608,-0.0,-0.0,1.0,0.0
0.9535003782743503,0.06327681458919665,0.08766052436704257,0.9535003782743503,NORMAL,0.9306408733582846,0.09490411287049604,0.1188635193202899,0.9306408733582846,0.9473412643089415,0.07747985116365526,0.11987844101871027,0.9473412643089415,0.9688059426242122,0.04119047535173791,0.05337934565418895,0.9688059426242122,0.8908832942741075,0.154457929930292,0.24329333844124826,0.8908832942741075,0.9066593251032089,0.1188520411989415,0.126047952330629,0.9066593251032089,-0.0,-0.0,1.0,0.0
0.9506118834640326,0.0671141231395399,0.09379585133640853,0.9506118834640326,NORMAL,0.9306408733582846,0.09490411287049604,0.1188635193202899,0.9306408733582846,0.936799987323693,0.09531578867976334,0.15046200051996375,0.936799987323693,0.9716944374345295,0.03719493342455517,0.04929736298715316,0.9716944374345295,0.8922781208749027,0.15347004285083438,0.23369180379668922,0.8922781208749027,0.9005002111378003,0.12509331791346243,0.10680737134869892,0.9005002111378003,-0.0,-0.0,1.0,0.0
0.9582646656389637,0.052589351047909065,0.06898508708424894,0.9582646656389637,NORMAL,0.9306408733582846,0.09490411287049604,0.1188635193202899,0.9306408733582846,0.9306408733582845,0.10197371033841522,0.1564804947504033,0.9306408733582845,0.9716944374345293,0.03719493342455516,0.05018350785060618,0.9716944374345293,0.8908832942741075,0.15445792993029267,0.23365427900496288,0.8908832942741075,0.8928474289628694,0.13806685766357385,0.13763823648695708,0.8928474289628694,-0.0,-0.0,1.0,0.0
0.961153160449281,0.0486741969718614,0.05532650687404665,0.961153160449281,NORMAL,0.9287650808039882,0.09676632464278481,0.11717270673823182,0.9287650808039882,0.9200995963730362,0.11918340558064637,0.18040511413910984,0.9200995963730362,0.9698186448802331,0.03926740024533918,0.05964487931050533,0.9698186448802331,0.893389664739651,0.15281575884340734,0.22359890234823968,0.893389664739651,0.9001180867930265,0.13129366160256903,0.13723868517207394,0.9001180867930265,-0.0,-0.0,1.0,0.0
0.9563888730846676,0.05460098394996175,0.05876777744784721,0.9563888730846676,NORMAL,0.9316535756143055,0.0931186262357198,0.11185296335505276,0.9316535756143055,0.91822380381874,0.12097062125255749,0.17076889385792557,0.91822380381874,0.9698186448802331,0.03926740024533918,0.06291127839135423,0.9698186448802331,0.8981539521042645,0.14783821614398965,0.22383339657920912,0.8981539521042645,0.9062772007584352,0.12509816542533622,0.13772752806681815,0.9062772007584352,-0.0,-0.0,1.0,0.0
0.9582646656389638,0.05258935104790872,0.057098796600952684,0.9582646656389638,NORMAL,0.9393063577892365,0.07911650190019273,0.08017154011118804,0.9393063577892365,0.9163480112644439,0.12274954216908436,0.16668691119088977,0.9163480112644439,0.9650543575156197,0.0452984408970676,0.06715908955054678,0.9650543575156197,0.9029182394688782,0.1427992206215093,0.22068626564606234,0.9029182394688782,0.9091656955687526,0.12164354486944769,0.13294518789686283,0.9091656955687526,-0.0,-0.0,1.0,0.0
0.961153160449281,0.0486741969718614,0.050006763490867606,0.961153160449281,NORMAL,0.9421948525995538,0.07536647324059839,0.07766224284769699,0.9421948525995538,0.9152364673996954,0.12346678737053378,0.16935972172655803,0.9152364673996954,0.9617837383605283,0.04859693394267066,0.0675905758924259,0.9617837383605283,0.9029182394688782,0.1427992206215093,0.21936992888031717,0.9029182394688782,0.9110414881230486,0.11988020718205167,0.13640829020582698,0.9110414881230486,-0.0,-0.0,1.0,0.0
0.9659174478138949,0.042685957170695656,0.04682184155486663,0.9659174478138949,NORMAL,0.942194852599554,0.0753664732405984,0.08152566787978735,0.942194852599554,0.9152364673996954,0.12346678737053378,0.17211342353180772,0.9152364673996954,0.9556246243951197,0.055765874694000045,0.08494414043011013,0.9556246243951197,0.8996476203137865,0.14551095671546957,0.2229514472505891,0.8996476203137865,0.9172006020884572,0.1135112755896742,0.14027144902678948,0.9172006020884572,-0.0,-0.0,1.0,0.0
0.9688059426242122,0.038707496970569855,0.038120473007571355,0.9688059426242122,NORMAL,0.9345420704246229,0.08944644310183021,0.11723226753610458,0.9345420704246229,0.9119658482446041,0.12629878248099058,0.16897939587227212,0.9119658482446041,0.9479718422201888,0.07022254385499109,0.11533099670324834,0.9479718422201888,0.9073004024887177,0.13248488747811313,0.21116946698297842,0.9073004024887177,0.9190763946427535,0.11171134258592529,0.14267353497934895,0.9190763946427535,-0.0,-0.0,1.0,0.0
0.9706817351785082,0.03663626454646695,0.03564495157528483,0.9706817351785082,NORMAL,0.9316535756143055,0.0931186262357198,0.12343815578273665,0.9316535756143055,0.9130773921093525,0.1255886219866611,0.16719048085388258,0.9130773921093525,0.9527361295848021,0.06443096640471296,0.11064104954572272,0.9527361295848021,0.9073004024887177,0.13248488747811313,0.21248580374872356,0.9073004024887177,0.9143121072781398,0.11702894678956426,0.15657942082655593,0.9143121072781398,-0.0,-0.0,1.0,0.0
0.9688059426242122,0.038707496970569855,0.04333403330827794,0.9688059426242122,NORMAL,0.9316535756143055,0.09311862623572015,0.12201460770605992,0.9316535756143055,0.9130773921093526,0.1255886219866608,0.17146918942070016,0.9130773921093526,0.9498476347744849,0.06826138291544101,0.10988394772836489,0.9498476347744849,0.9073004024887177,0.1324848874781138,0.20918275463420918,0.9073004024887177,0.9037708302928917,0.13371852506935566,0.2030160273948741,0.9037708302928917,-0.0,-0.0,1.0,0.0
0.9655353234691206,0.04204230015361535,0.04607521259028679,0.9655353234691206,NORMAL,0.927271412594466,0.09688630232377378,0.1271958634188249,0.927271412594466,0.9207301742842834,0.11216623993164726,0.1474630928871457,0.9207301742842834,0.9463118550178272,0.07241137794105412,0.11031426040874809,0.9463118550178272,0.9091761950430137,0.13074860379298311,0.20164959108258362,0.9091761950430137,0.9161878998324361,0.11524335045624362,0.17782087701561233,0.9161878998324361,-0.0,-0.0,1.0,0.0
0.9655353234691207,0.042042300153615354,0.04430292286338076,0.9655353234691207,NORMAL,0.9316535756143055,0.0931186262357198,0.12105790156534078,0.9316535756143055,0.9207301742842834,0.11216623993164726,0.1474630928871457,0.9207301742842834,0.9444025661679188,0.07437004456700079,0.12280521758797071,0.9444025661679188,0.9080646511782656,0.13144810782247998,0.20951110198131095,0.9080646511782656,0.9286049693719807,0.09621759019458664,0.1251892980682439,0.9286049693719807,-0.0,-0.0,1.0,0.0
0.9655353234691207,0.042042300153615354,0.04888565870997478,0.9655353234691207,NORMAL,0.9349241947693969,0.09008991594126717,0.11802478688768588,0.9349241947693969,0.9207301742842834,0.11216623993164726,0.15154507555418148,0.9207301742842834,0.9317637632437394,0.09429671872245524,0.17898850990836304,0.9317637632437394,0.9019055372128568,0.13761619911805686,0.2114136672537542,0.9019055372128568,0.9339114925133758,0.09188566793224968,0.12411656487610274,0.9339114925133758,-0.0,-0.0,1.0,0.0
0.9626468286588035,0.04599653110699349,0.060597077700319364,0.9626468286588035,NORMAL,0.9421948525995538,0.08252384031409594,0.10164640036260977,0.9421948525995538,0.9058067342791956,0.1325360011627445,0.19994581945678022,0.9058067342791956,0.9350927863123144,0.09125227662313715,0.18090025591015388,0.9350927863123144,0.8975233741930173,0.14101830120369413,0.21484278946053093,0.8975233741930173,0.9339114925133758,0.09188566793224968,0.13143602641352362,0.9339114925133758,-0.0,-0.0,1.0,0.0
0.9597583338484859,0.04992627733354597,0.0699988037505342,0.9597583338484859,NORMAL,0.9408000259987587,0.08369826042221813,0.10621661368596297,0.9408000259987587,0.9134595164541265,0.11929506694074023,0.16229205858060528,0.9134595164541265,0.9350927863123144,0.09125227662313852,0.18007931281430845,0.9350927863123144,0.8975233741930173,0.1410183012036938,0.22191299083545238,0.8975233741930173,0.9320356999590796,0.09376184359507954,0.14089739787342279,0.9320356999590796,-0.0,-0.0,1.0,0.0
0.9622647043140293,0.04781983934483032,0.07076984218989125,0.9622647043140293,NORMAL,0.9360357386341454,0.08931119923414793,0.10811694090217164,0.9360357386341454,0.927271412594466,0.09926283075908633,0.1452755383635187,0.927271412594466,0.9302434223876187,0.09683436409932293,0.1917996485008633,0.9302434223876187,0.9000297446585607,0.13931994944542447,0.21899648129246332,0.9000297446585607,0.9301599074047836,0.09562972450252752,0.14106322636557955,0.9301599074047836,-0.0,-0.0,1.0,0.0
0.9622647043140293,0.04781983934483067,0.07540022854954405,0.9622647043140293,NORMAL,0.9331472438238277,0.09299057151877295,0.11408927853448189,0.9331472438238277,0.9378126895797143,0.08167297046649727,0.10230203410416469,0.9378126895797143,0.9288236881689521,0.09797520925187467,0.2054412917597956,0.9288236881689521,0.8981539521042645,0.1410154050174092,0.21281141922420227,0.8981539521042645,0.9301599074047834,0.0956297245025275,0.14106322636557955,0.9301599074047834,-0.0,-0.0,1.0,0.0
0.9622647043140293,0.04781983934483067,0.08141845656885577,0.9622647043140293,NORMAL,0.9360357386341454,0.08931119923414793,0.1276326326614168,0.9360357386341454,0.9378126895797143,0.08167297046649796,0.10379614345810753,0.9378126895797143,0.9307329770188607,0.09610230742788074,0.19779289919403914,0.9307329770188607,0.895647581638721,0.14270385484372794,0.21237993288232318,0.895647581638721,0.927271412594466,0.09926283075908668,0.14506373188776742,0.927271412594466,-0.0,-0.0,1.0,0.0
0.9603889117597333,0.04985004171410366,0.08672728408445302,0.9603889117597333,NORMAL,0.9236186690946008,0.10860353456997944,0.14517649231053964,0.9236186690946008,0.9410833087348055,0.07858009041893753,0.10456367192293016,0.9410833087348055,0.9277929019440734,0.09977035228236092,0.19159642810684693,0.9277929019440734,0.9004118690033347,0.13765590663290012,0.20398145064561563,0.9004118690033347,0.9320356999590796,0.09376184359507954,0.13138048078730044,0.9320356999590796,-0.0,-0.0,1.0,0.0
0.957500416949416,0.053758303750537514,0.08346088500360413,0.957500416949416,NORMAL,0.9086952290895128,0.1291072999311674,0.1986262051164016,0.9086952290895128,0.9458475960994192,0.07287783319077054,0.08889828508318584,0.9458475960994192,0.9340620000874359,0.09306842401645031,0.17362191543507025,0.9340620000874359,0.9004118690033347,0.13765590663290042,0.20378474741750038,0.9004118690033347,0.927271412594466,0.09926283075908703,0.13839103675253764,0.927271412594466,-0.0,-0.0,1.0,0.0
0.9575004169494158,0.0537583037505375,0.08517636847592694,0.9575004169494158,NORMAL,0.9025361151241041,0.1352968117058947,0.19862620511640164,0.9025361151241041,0.9320356999590796,0.09376184359507954,0.11882827858974243,0.9320356999590796,0.9326422658687695,0.09422089524249985,0.18247875168630392,0.9326422658687695,0.903300363813652,0.13426902733528145,0.20447418905283812,0.903300363813652,0.927271412594466,0.09926283075908703,0.12492915977045058,0.927271412594466,-0.0,-0.0,1.0,0.0
0.951341302984007,0.06085912418223312,0.08818481226331717,0.951341302984007,NORMAL,0.9098067729542613,0.12840422414395827,0.1886626092336813,0.9098067729542613,0.929147205148762,0.09740928652206797,0.12291026125677823,0.929147205148762,0.9433717799430401,0.07622471409770727,0.14117173297309943,0.9433717799430401,0.9065709829687434,0.13150133760871016,0.19840925413711527,0.9065709829687434,0.9320356999590796,0.09376184359508091,0.11977524487942831,0.9320356999590796,-0.0,-0.0,1.0,0.0
0.9389242334444624,0.08088121410979761,0.10315171446692883,0.9389242334444624,NORMAL,0.9222238424938056,0.10971051139435815,0.13127060646333263,0.9222238424938056,0.9243829177841485,0.10287145228882226,0.13530924901567368,0.9243829177841485,0.9326422658687693,0.09422089524249982,0.19978880872153593,0.9326422658687693,0.9142237651436744,0.11823871045997893,0.15543574987776124,0.9142237651436744,0.9367999873236932,0.08819940360800976,0.1200315935172279,0.9367999873236932,-0.0,-0.0,1.0,0.0
0.9389242334444624,0.08088121410979761,0.10723369713396463,0.9389242334444624,NORMAL,0.925494461648897,0.1067778308696519,0.12121522980660943,0.925494461648897,0.9243829177841485,0.10287145228882091,0.13686016462419975,0.9243829177841485,0.9355823409435566,0.09051295352277078,0.19355503313579134,0.9355823409435566,0.9266408346832189,0.09930053491732954,0.1363977808746956,0.9266408346832189,0.9367999873236932,0.08819940360800942,0.12560768553820656,0.9367999873236932,-0.0,-0.0,1.0,0.0
0.9389242334444624,0.08088121410979761,0.15053402669657281,0.9389242334444624,NORMAL,0.9331472438238277,0.0929905715187733,0.10837223318259404,0.9331472438238277,0.9262587103384446,0.10103224472223046,0.14811853174862946,0.9262587103384446,0.9389113640121316,0.08743986462718567,0.18805899758713118,0.9389113640121316,0.9291472051487623,0.09740928652206833,0.13378424225410573,0.9291472051487623,0.9367999873236932,0.08819940360800942,0.12067230561046312,0.9367999873236932,-0.0,-0.0,1.0,0.0
0.9283829564592142,0.09850323611038417,0.17942677361576814,0.9283829564592142,NORMAL,0.9331472438238277,0.09299057151877192,0.10467564219945302,0.9331472438238277,0.9262587103384446,0.10103224472223046,0.15006569296848718,0.9262587103384446,0.9344509480812235,0.09129290246276973,0.205916140444274,0.9344509480812235,0.9335293681686018,0.09363464490821968,0.13033044915706435,0.9335293681686018,0.9396884821340106,0.08448865455694282,0.11358027250037804,0.9396884821340106,-0.0,-0.0,1.0,0.0
0.9331472438238277,0.09299057151877295,0.16791205785353883,0.9331472438238277,NORMAL,0.9331472438238277,0.09299057151877192,0.10537599970237257,0.9331472438238277,0.9262587103384446,0.10103224472223046,0.14725524684879918,0.9262587103384446,0.9281818499378611,0.09801007388009605,0.21484307652690676,0.9281818499378611,0.935405160722898,0.0917546092284826,0.13070492497337732,0.935405160722898,0.933529368168602,0.09124207779300346,0.12404430934658454,0.933529368168602,-0.0,-0.0,1.0,0.0
0.9331472438238277,0.09299057151877159,0.17668398767810023,0.9331472438238277,NORMAL,0.9331472438238277,0.0929905715187733,0.10857183750595534,0.9331472438238277,0.9400706064787844,0.08040135331647762,0.11478098155933188,0.9400706064787844,0.9344509480812235,0.09129290246276973,0.205916140444274,0.9344509480812235,0.9310229977030585,0.0955474475296664,0.13720374303288765,0.9310229977030585,0.9306408733582845,0.094904112870495,0.1353931966166571,0.9306408733582845,-0.0,-0.0,1.0,0.0
0.9393063577892365,0.08625192657229433,0.1554205574230423,0.9393063577892365,NORMAL,0.9331472438238277,0.0929905715187733,0.11315457335254937,0.9331472438238277,0.9381948139244882,0.08231527144795017,0.11140839939601055,0.9381948139244882,0.9281818499378611,0.09801007388009605,0.218275883371716,0.9281818499378611,0.9237523398729016,0.10290615591035988,0.14177716966755893,0.9237523398729016,0.9320356999590796,0.09376184359507954,0.12994777696909926,0.9320356999590796,-0.0,-0.0,1.0,0.0
0.942194852599554,0.08252384031409561,0.14767593006382604,0.942194852599554,NORMAL,0.9360357386341451,0.08931119923414825,0.11811178501545637,0.9360357386341451,0.9381948139244882,0.08231527144795017,0.11565621055520311,0.9381948139244882,0.924852826869286,0.10100286923808853,0.22377191892037612,0.924852826869286,0.9113352703333568,0.121727664530051,0.18075921140551998,0.9113352703333568,0.9306408733582846,0.09490411287049501,0.1276354491448513,0.9306408733582846,-0.0,-0.0,1.0,0.0
0.9393063577892367,0.0862519265722957,0.15938734905417062,0.9393063577892367,NORMAL,0.9498476347744849,0.0682613829154417,0.09452766134087538,0.9498476347744849,0.9243829177841485,0.10287145228882191,0.152272019309579,0.9243829177841485,0.9293132428001941,0.09724502618932127,0.2054050808626115,0.9293132428001941,0.9094594777790608,0.12348792873496693,0.19005475437326236,0.9094594777790608,0.9306408733582845,0.09490411287049466,0.12614133979090847,0.9306408733582845,-0.0,-0.0,1.0,0.0
0.9331472438238277,0.0929905715187726,0.1800565698414216,0.9331472438238277,NORMAL,0.9469591399641675,0.07206731469934446,0.1118151723521986,0.9469591399641675,0.9196186304195348,0.10827216523251118,0.14669592728860037,0.9196186304195348,0.9355823409435566,0.09051295352277078,0.2021508569722423,0.9355823409435566,0.9094594777790606,0.1234879287349669,0.18809667728582286,0.9094594777790606,0.9229880911833537,0.10863417991798296,0.16937119268806206,0.9229880911833537,-0.0,-0.0,1.0,0.0
0.9360357386341451,0.08931119923414756,0.18356737346402913,0.9360357386341451,NORMAL,0.9517234273287809,0.06629192722050839,0.10478276198013128,0.9517234273287809,0.9196186304195348,0.10827216523251118,0.14669592728860037,0.9196186304195348,0.9418514390869192,0.08368186955134023,0.18979111404480034,0.9418514390869192,0.9094594777790606,0.1234879287349669,0.18809667728582286,0.9094594777790606,0.9252417748630738,0.10642960989638321,0.16646176882256986,0.9252417748630738,-0.0,-0.0,1.0,0.0
0.9360357386341451,0.0893111992341479,0.18185188999170634,0.9360357386341451,NORMAL,0.9535992198830773,0.0643141767701915,0.10997446787400772,0.9535992198830773,0.9225071252298522,0.1047023651000298,0.13766764882623936,0.9225071252298522,0.9311219250126485,0.10156095019573456,0.22721529462917803,0.9311219250126485,0.9138416407989002,0.11993818478439867,0.18583294359128133,0.9138416407989002,0.929702190793982,0.10269594671072237,0.17216082388855283,0.929702190793982,-0.0,-0.0,1.0,0.0
0.9360357386341451,0.08931119923414756,0.1725792069875867,0.9360357386341451,NORMAL,0.9549940464838724,0.0630920985309685,0.11698765872336306,0.9549940464838724,0.9206313326755562,0.10652498315585411,0.13878728236386925,0.9206313326755562,0.9262725610879525,0.10706148316791377,0.22785633721600387,0.9262725610879525,0.9157174333531964,0.11815972389214863,0.18532024631568217,0.9157174333531964,0.9311219250126485,0.10156095019573524,0.18360604779281248,0.9311219250126485,-0.0,-0.0,1.0,0.0
0.9331472438238277,0.0929905715187726,0.18165505135119495,0.9331472438238277,NORMAL,0.9563888730846676,0.06186617565716545,0.11998549885924359,0.9563888730846676,0.919236506074761,0.10763045987315246,0.14334719205806745,0.919236506074761,0.9237214340069531,0.1089273638457457,0.23264114422370247,0.9237214340069531,0.9157174333531964,0.11815972389214863,0.18036303465277514,0.9157174333531964,0.9311219250126485,0.10156095019573524,0.19603734105543089,0.9311219250126485,-0.0,-0.0,1.0,0.0
0.9360357386341451,0.0893111992341479,0.1725792069875867,0.9360357386341451,NORMAL,0.9535003782743501,0.06572056593456706,0.1306340286263966,0.9535003782743501,0.919236506074761,0.10763045987315348,0.13991622511342186,0.919236506074761,0.9237214340069528,0.10892736384574568,0.22937712709412425,0.9237214340069528,0.9080646511782656,0.13144810782248031,0.20693517276425893,0.9080646511782656,0.9277929019440734,0.10455279160238526,0.20287321938351022,0.9277929019440734,-0.0,-0.0,1.0,0.0
0.9360357386341451,0.0893111992341479,0.1781890128996249,0.9360357386341451,NORMAL,0.9582646656389637,0.05986879218115076,0.12062433808569191,0.9582646656389637,0.9119658482446041,0.1147806179620252,0.15740307423697852,0.9119658482446041,0.9218121451570442,0.11075663402475988,0.2210673766648014,0.9218121451570442,0.9186059281635137,0.11463909594451477,0.18443410145222913,0.9186059281635137,0.9244638788754982,0.10752055714629397,0.21937549529998215,0.9244638788754982,-0.0,-0.0,1.0,0.0
0.9360357386341451,0.08931119923414756,0.17162246579950768,0.9360357386341451,NORMAL,0.9601404581932598,0.05786311394975141,0.11265707597973561,0.9601404581932598,0.9167301356092175,0.1094679687205202,0.1584659634601701,0.9167301356092175,0.9218121451570442,0.11075663402475953,0.2210673766648014,0.9218121451570442,0.9310229977030583,0.09554744752966639,0.14616146021798254,0.9310229977030583,0.9277929019440734,0.10455279160238459,0.22393757089292765,0.9277929019440734,-0.0,-0.0,1.0,0.0
0.9360357386341451,0.08931119923414618,0.17862210589716307,0.9360357386341451,NORMAL,0.9620162507475561,0.05584914096296954,0.11139748352842875,0.9620162507475561,0.919236506074761,0.10763045987315246,0.15270247742299894,0.919236506074761,0.9155430470136819,0.11723323243691759,0.22896161965361414,0.9155430470136819,0.9310229977030583,0.09554744752966639,0.14793374994488856,0.9310229977030583,0.9258836130941647,0.10640112613266318,0.21655201093005383,0.9258836130941647,-0.0,-0.0,1.0,0.0
0.9360357386341451,0.08931119923414756,0.17816615293600216,0.9360357386341451,NORMAL,0.9514749737623077,0.07422815359657908,0.1432188037458255,0.9514749737623077,0.9240007934393744,0.10222911866950078,0.15377440964698544,0.9240007934393744,0.9129919199326822,0.1190422160415993,0.22746511012743537,0.9129919199326822,0.9310229977030583,0.09554744752966639,0.14751159548659878,0.9310229977030583,0.9196145149508024,0.11294267915016147,0.21971102354714744,0.9196145149508024,-0.0,-0.0,1.0,0.0
0.9331472438238277,0.0929905715187726,0.17766539975644394,0.9331472438238277,NORMAL,0.9495991812080116,0.07618137990902128,0.14533179345783998,0.9495991812080116,0.9312714512695317,0.09486268522301197,0.14376492337726368,0.9312714512695317,0.905202480933199,0.1324598040114331,0.2577646570409853,0.905202480933199,0.9277523785479671,0.09854166322116263,0.15264273502580983,0.9277523785479671,0.9151540990198943,0.11657515882934795,0.21553275835928487,0.9151540990198943,-0.0,-0.0,1.0,0.0
0.9320356999590794,0.09376184359507883,0.1783899927148773,0.9320356999590794,NORMAL,0.952487676018329,0.07237616181646823,0.13575519591467344,0.952487676018329,0.9283829564592143,0.09850323611038554,0.1522805045640255,0.9283829564592143,0.9032931920832906,0.1341935597926571,0.251436838567589,0.9032931920832906,0.9325166659125806,0.09303360634282364,0.14268175135554112,0.9325166659125806,0.9151540990198943,0.1165751588293483,0.21808391160196283,0.9151540990198943,-0.0,-0.0,1.0,0.0
