AccX_entropy,AccX_complexity,AccX_fisher,AccX_shannon,Class,AccY_entropy,AccY_complexity,AccY_fisher,AccY_shannon,AccZ_entropy,AccZ_complexity,AccZ_fisher,AccZ_shannon,GyroX_entropy,GyroX_complexity,GyroX_fisher,GyroX_shannon,GyroY_entropy,GyroY_complexity,GyroY_fisher,GyroY_shannon,GyroZ_entropy,GyroZ_complexity,GyroZ_fisher,GyroZ_shannon,Timestamp_entropy,Timestamp_complexity,Timestamp_fisher,Timestamp_shannon
0.9719027633477157,0.036849108244780875,0.037161287388853284,0.9719027633477157,NORMAL,0.9796901827993306,0.028503150472087155,0.0443296287087105,0.9796901827993306,0.975522606177321,0.03311825437088351,0.04256598652713953,0.975522606177321,0.9909346175254731,0.011761006787718306,0.016586356092901183,0.9909346175254731,0.9782607957974174,0.028999447740123505,0.04393212108555239,0.9782607957974174,0.9583692040709797,0.05173414110179248,0.034402986276843676,0.9583692040709797,-0.0,-0.0,1.0,0.0
0.9719027633477157,0.036849108244780514,0.03765003405770066,0.9719027633477157,NORMAL,0.9803657472717745,0.02768056559825643,0.0432833295071192,0.9803657472717745,0.9757454046003043,0.0328516704013298,0.04013756362457638,0.9757454046003043,0.9906352508951964,0.012186685709348489,0.01754265623635002,0.9906352508951964,0.9780827254474517,0.02918841562043495,0.043964744685781744,0.9780827254474517,0.9585068653606831,0.05161659231043841,0.03708126024820627,0.9585068653606831,-0.0,-0.0,1.0,0.0
0.9734852055023739,0.03458590980000538,0.0365639482762921,0.9734852055023739,NORMAL,0.980705652666829,0.02732805117411008,0.04305293267440213,0.980705652666829,0.9757454046003043,0.0328516704013298,0.04013756362457638,0.9757454046003043,0.9894955512069628,0.013779209837435732,0.0197379466774213,0.9894955512069628,0.9774839228117187,0.029868325294871302,0.04382948636159108,0.9774839228117187,0.959693480706903,0.050534171632130594,0.0388059475085168,0.959693480706903,-0.0,-0.0,1.0,0.0
0.9715267591349661,0.0372554166391394,0.041915816307051414,0.9715267591349661,NORMAL,0.9808837230167948,0.027138210376335986,0.04157070455548748,0.9808837230167948,0.975522606177321,0.03311825437088351,0.03867800083798848,0.975522606177321,0.990174954113909,0.012935659567673402,0.01892369401650224,0.990174954113909,0.9764684529442202,0.031036734945792573,0.04462994589850955,0.9764684529442202,0.959693480706903,0.050534171632130594,0.03637011260786519,0.959693480706903,-0.0,-0.0,1.0,0.0
0.9705112892674678,0.03840859736754725,0.046427180641921556,0.9705112892674678,NORMAL,0.980883723016795,0.027138210376335268,0.04235841414028645,0.980883723016795,0.9729600910212416,0.036878278896649394,0.04357746577863803,0.9729600910212416,0.9897518313037909,0.013441455481886973,0.020275221694255833,0.9897518313037909,0.9764684529442202,0.031036734945792573,0.04462994589850955,0.9764684529442202,0.9588417727143987,0.051500711561119544,0.03632573118059521,0.9588417727143987,-0.0,-0.0,1.0,0.0
0.9705112892674678,0.03840859736754725,0.046427180641921556,0.9705112892674678,NORMAL,0.9816590289198376,0.026122291345704086,0.03914944848715768,0.9816590289198376,0.9727052588345648,0.03720308898565402,0.045609764561461985,0.9727052588345648,0.9891961845766862,0.014203649462548321,0.021128040896385834,0.9891961845766862,0.9764684529442202,0.031036734945792573,0.04462994589850955,0.9764684529442202,0.9567583843882942,0.05389135814827441,0.036580383902725055,0.9567583843882942,-0.0,-0.0,1.0,0.0
0.9694958193999694,0.0395592834043106,0.04676893993474875,0.9694958193999694,NORMAL,0.9809834644473935,0.026947084800680487,0.03893182926012785,0.9809834644473935,0.9729600910212416,0.03687827889665047,0.04557604933286978,0.9729600910212416,0.9889399044798577,0.014541012775664096,0.022913536437542143,0.9889399044798577,0.9774839228117188,0.02986832529487131,0.041514419007311704,0.9774839228117188,0.9567583843882942,0.05389135814827441,0.035044426660756474,0.9567583843882942,-0.0,-0.0,1.0,0.0
0.9677869390662998,0.042292484902149305,0.04707695160957567,0.9677869390662998,NORMAL,0.9809834644473935,0.026947084800680487,0.03991011289734659,0.9809834644473935,0.973299996416296,0.036531785192771386,0.04442295209218301,0.973299996416296,0.9892392711101342,0.014116787432839704,0.023452579796677846,0.9892392711101342,0.9756645068472499,0.03212542868882308,0.044152331219091574,0.9756645068472499,0.9580715295491747,0.052374658670288926,0.03407392374214199,0.9580715295491747,-0.0,-0.0,1.0,0.0
0.9677869390662998,0.04229248490214895,0.045217349290104056,0.9677869390662998,NORMAL,0.9811813983101773,0.026722640141913827,0.03999964015412091,0.9811813983101773,0.9736760006290456,0.03612440335968823,0.04461235593989368,0.9736760006290456,0.9902180406473572,0.012848655196194103,0.021290920571307284,0.9902180406473572,0.9759621821406324,0.03171367847086631,0.04351817006301873,0.9759621821406324,0.9597426295139573,0.05033337286940906,0.03346928093591606,0.9597426295139573,-0.0,-0.0,1.0,0.0
0.9662526770336277,0.04519816100083138,0.0444251914695332,0.9662526770336277,NORMAL,0.9811813983101773,0.026722640141913827,0.03999964015412091,0.9811813983101773,0.9730508956920012,0.03673140421794142,0.04640150378298605,0.9730508956920012,0.9904421049704714,0.012572527235015776,0.02074515419579821,0.9904421049704714,0.9751550458890166,0.03298413516350901,0.04747938703246892,0.9751550458890166,0.9620112269261397,0.04743328171838956,0.03258056290213618,0.9620112269261397,-0.0,-0.0,1.0,0.0
0.9653990422112181,0.046179340108288454,0.04584287157890966,0.9653990422112181,NORMAL,0.9825125928799053,0.02493843783577698,0.03588106012420072,0.9825125928799053,0.9730508956920012,0.03673140421794213,0.04659717375303799,0.9730508956920012,0.9896623939202523,0.013611548150451949,0.022713940508253927,0.9896623939202523,0.9747058644413031,0.03371742247223344,0.05001673025044839,0.9747058644413031,0.9600560097183813,0.049495642244190945,0.0321310291135986,0.9600560097183813,-0.0,-0.0,1.0,0.0
0.965936881469056,0.04562209874053697,0.04641130399617784,0.965936881469056,NORMAL,0.9831113955156384,0.0242518402120929,0.033796837214345836,0.9831113955156384,0.9727109902969467,0.03707773294811026,0.047607316062305484,0.9727109902969467,0.9885226942320184,0.01520083808792764,0.02501743575928593,0.9885226942320184,0.9733927192804224,0.03528810009809102,0.05298625101905583,0.9733927192804224,0.9579961598433819,0.05162320276352721,0.03337736724068169,0.9579961598433819,-0.0,-0.0,1.0,0.0
0.96744614638875,0.043708706961400876,0.04246198931419361,0.96744614638875,NORMAL,0.9829134616528549,0.02447724509069172,0.03403169295215945,0.9829134616528549,0.9734862961999892,0.03607855305491853,0.04730529698213772,0.9734862961999892,0.9874116053486968,0.01692925878075574,0.028490383247301798,0.9874116053486968,0.9717216193156397,0.03738677609954277,0.05431787728138802,0.9717216193156397,0.9588032960949977,0.05039175549164769,0.031107286189237162,0.9588032960949977,-0.0,-0.0,1.0,0.0
0.9685794070956945,0.042192194966139226,0.04489069988108237,0.9685794070956945,NORMAL,0.9835890261252987,0.023649059580848467,0.033438509918318586,0.9835890261252987,0.9734862961999894,0.036078553054918534,0.04982160810811674,0.9734862961999894,0.987891949768639,0.01631849566465805,0.027494710163726274,0.987891949768639,0.9686049151283094,0.0425583711323018,0.06238420444537793,0.9686049151283094,0.9595786019980401,0.0494184672103365,0.028314264943705078,0.9595786019980401,-0.0,-0.0,1.0,0.0
0.9685794070956945,0.042192194966139226,0.04489069988108237,0.9685794070956945,NORMAL,0.9835890261252987,0.023649059580848467,0.033438509918318586,0.9835890261252987,0.9743093349998174,0.03524977618004842,0.05015368516178772,0.9743093349998174,0.9882700903689611,0.01589586472373807,0.027516679223392255,0.9882700903689611,0.9686049151283092,0.04255837113230179,0.06214755760718637,0.9686049151283092,0.9587714657464247,0.05065179836528751,0.029667484302140435,0.9587714657464247,-0.0,-0.0,1.0,0.0
0.9685794070956945,0.042192194966139226,0.04489069988108237,0.9685794070956945,NORMAL,0.9869036641754125,0.018106057069457088,0.025357104476162778,0.9869036641754125,0.9743093349998174,0.03524977618004842,0.05193395641195034,0.9743093349998174,0.988270090368961,0.015895864723738065,0.027147273677002797,0.988270090368961,0.966641202607963,0.04560408610174569,0.06702205470978674,0.966641202607963,0.9604425657112072,0.048605887672354006,0.029211277265191495,0.9604425657112072,-0.0,-0.0,1.0,0.0
0.9659282341294908,0.04544413089478202,0.04784606052433202,0.9659282341294908,NORMAL,0.9871015980381963,0.017878419585478558,0.025784490445112333,0.9871015980381963,0.9729496912681428,0.0372491407757785,0.057163791176345936,0.9729496912681428,0.9875906874620146,0.01673572184980758,0.02777032959388356,0.9875906874620146,0.9653100080382347,0.04732986680347991,0.06855717867726986,0.9653100080382347,0.9582405741927171,0.051099235502187625,0.029834912569895473,0.9582405741927171,-0.0,-0.0,1.0,0.0
0.9659282341294908,0.04544413089478237,0.04828176813770154,0.9659282341294908,NORMAL,0.9871015980381963,0.017878419585478558,0.025279770013248836,0.9871015980381963,0.9713672491134844,0.039506698706836964,0.05978802547318361,0.9713672491134844,0.9873344073651863,0.017071868439619737,0.029013144846311692,0.9873344073651863,0.9689645514834033,0.04163078164310866,0.057853045147758346,0.9689645514834033,0.9548741519446712,0.055419919882620454,0.035066781635539675,0.9548741519446712,-0.0,-0.0,1.0,0.0
0.9674745955506966,0.043848425534048836,0.044988905113166014,0.9674745955506966,NORMAL,0.9869036641754125,0.018106057069457088,0.025357104476162778,0.9869036641754125,0.9691807381701545,0.042830298488440395,0.061372006752053426,0.9691807381701545,0.9853648334616001,0.019824732548217455,0.03293934470382181,0.9853648334616001,0.9689645514834033,0.04163078164310866,0.05605777135036103,0.9689645514834033,0.9543859305499308,0.05588550085750402,0.034976000650373186,0.9543859305499308,-0.0,-0.0,1.0,0.0
0.9681501600231405,0.043047298573588834,0.04300740447205759,0.9681501600231405,NORMAL,0.9869036641754125,0.018106057069457088,0.025683857254558202,0.9869036641754125,0.9689259059834779,0.04315220636646444,0.06297366762448028,0.9689259059834779,0.9856211135584284,0.019489990020637712,0.03291912340273356,0.9856211135584284,0.9685438191976362,0.042111750577781305,0.057393066754101614,0.9685438191976362,0.9555191912568755,0.054405287376685235,0.03124627905318234,0.9555191912568755,-0.0,-0.0,1.0,0.0
0.9687489626588736,0.04238237944902428,0.04030157542926606,0.9687489626588736,NORMAL,0.9871015980381963,0.017878419585478558,0.02602636176210932,0.9871015980381963,0.9658092017961474,0.04828963693595011,0.07160001352442386,0.9658092017961474,0.9856211135584284,0.019489990020637712,0.03353488723893992,0.9856211135584284,0.9656711529967821,0.04611302419698394,0.06245543276612891,0.9656711529967821,0.9558771460607774,0.05388864040515863,0.031198281572250252,0.9558771460607774,-0.0,-0.0,1.0,0.0
0.9708692440713698,0.039572242616786345,0.036737905641947684,0.9708692440713698,NORMAL,0.9871015980381963,0.017878419585478558,0.02602636176210932,0.9871015980381963,0.9648359620303213,0.049486619686179005,0.07571342454246469,0.9648359620303213,0.9854220550714242,0.019717519492920145,0.03474791437048678,0.9854220550714242,0.9642096918362154,0.0477870722944279,0.06594578825426999,0.9642096918362154,0.954294703906119,0.0560768266434074,0.034430009924241375,0.954294703906119,-0.0,-0.0,1.0,0.0
0.9749360758778602,0.03343981428594647,0.03201110462859369,0.9749360758778602,NORMAL,0.9873564302248731,0.017543528206038078,0.025385890600072243,0.9873564302248731,0.9645811298436444,0.04980522481555029,0.0779787546353326,0.9645811298436444,0.9851979907483103,0.019990594054265173,0.03563109076761002,0.9851979907483103,0.9636108892004823,0.048445271244171625,0.067597405504662,0.9636108892004823,0.9558771460607772,0.05388864040515862,0.029919862919986457,0.9558771460607772,-0.0,-0.0,1.0,0.0
0.9749360758778602,0.03343981428594647,0.03143888808751724,0.9749360758778602,NORMAL,0.9871584963620894,0.017771293455299614,0.02565346891367468,0.9871584963620894,0.9639823272079115,0.050462447495712194,0.0781181883607166,0.9639823272079115,0.9844182796980914,0.021018133331338344,0.03774624584485201,0.9844182796980914,0.9639868934132318,0.04804687431796649,0.06822949370658606,0.9639868934132318,0.9555191912568752,0.05440528737668488,0.03193082526175036,0.9555191912568752,-0.0,-0.0,1.0,0.0
0.9774985910339397,0.02966274235378266,0.028290191691348925,0.9774985910339397,NORMAL,0.9874133285487662,0.017436354590775797,0.025767231632578397,0.9874133285487662,0.964322232602966,0.05012417854170282,0.07642701989412412,0.964322232602966,0.9853970492353145,0.019763173292796653,0.035988652449453575,0.9853970492353145,0.9654961583329259,0.04614142340152985,0.06706718671007685,0.9654961583329259,0.9566705013726675,0.05304574451614634,0.03373798919851028,0.9566705013726675,-0.0,-0.0,1.0,0.0
0.9782738969369822,0.02865247719010351,0.026323495570498855,0.9782738969369822,NORMAL,0.9878340608345333,0.016934799423044263,0.023340025245094813,0.9878340608345333,0.9648104539977066,0.04965024385790083,0.07461060030187758,0.9648104539977066,0.9852179671219964,0.019955716566583872,0.035319843535875604,0.9852179671219964,0.9672050386665956,0.043421846140353916,0.06113755330520762,0.9672050386665956,0.9587303512476667,0.050924491778127697,0.03287647289392221,0.9587303512476667,-0.0,-0.0,1.0,0.0
0.9790492028400246,0.027640573415314198,0.026939577496114395,0.9790492028400246,NORMAL,0.9878340608345333,0.016934799423044263,0.023535695215146757,0.9878340608345333,0.9636591438819144,0.05102650277950978,0.0753358295551305,0.9636591438819144,0.9863758187725372,0.018505678701261595,0.03197731262662712,0.9863758187725372,0.9672050386665956,0.043421846140353916,0.06045746077838546,0.9672050386665956,0.9558633651210515,0.0542720220412202,0.03500917545124308,0.9558633651210515,-0.0,-0.0,1.0,0.0
0.9788264044170413,0.02790929681007708,0.027270653123273553,0.9788264044170413,NORMAL,0.9886093667375759,0.015903376497530156,0.022938180952259215,0.9886093667375759,0.9636591438819144,0.051026502779510124,0.07508705500684816,0.9636591438819144,0.9856964158655909,0.019342085366689334,0.03220676060829314,0.9856964158655909,0.9676932600613359,0.042942960726694755,0.06226712387975532,0.9676932600613359,0.9513633033893526,0.06049849814930388,0.0433453611202608,0.9513633033893526,-0.0,-0.0,1.0,0.0
0.9798722416398526,0.02679962369380175,0.026548796409389282,0.9798722416398526,NORMAL,0.9907958776809058,0.01244991433320482,0.017548926445924776,0.9907958776809058,0.9634612100191308,0.051241752144588766,0.0734487241012556,0.9634612100191308,0.9872878491688551,0.01700940603925154,0.02761567213061788,0.9872878491688551,0.9673533546662817,0.043285058357867424,0.06498795507201346,0.9673533546662817,0.9513633033893526,0.06049849814930388,0.04298799262348161,0.9513633033893526,-0.0,-0.0,1.0,0.0
0.9807827039238136,0.025512624057644432,0.024809667719787428,0.9807827039238136,NORMAL,0.9910186761038892,0.012174274899212828,0.017216920050645023,0.9910186761038892,0.9627005723383091,0.05205279569419879,0.07411876635501592,0.9627005723383091,0.9861767602855332,0.018733587099793506,0.03065930341447597,0.9861767602855332,0.9695398656096116,0.03996910330191888,0.05787458138095132,0.9695398656096116,0.9522169382117623,0.05954561539243162,0.04126994167434291,0.9522169382117623,-0.0,-0.0,1.0,0.0
0.9809806377865975,0.025287938056573676,0.023017486882715158,0.9809806377865975,NORMAL,0.9910186761038892,0.012174274899212828,0.015835097295866667,0.9910186761038892,0.9625026384755258,0.052267599030341935,0.075504995558883,0.9625026384755258,0.986176760285533,0.01873358709979314,0.030055782318190755,0.986176760285533,0.9722642158107796,0.03607124188152969,0.051664892211309876,0.9722642158107796,0.9516181355760291,0.06018748514053994,0.03791658738004641,0.9516181355760291,-0.0,-0.0,1.0,0.0
0.9818911000705585,0.023998024670187183,0.02012044636598373,0.9818911000705585,NORMAL,0.9904198734681563,0.012873932637100098,0.016254576302798324,0.9904198734681563,0.9625026384755255,0.05226759903034157,0.07590650862026986,0.9625026384755255,0.986176760285533,0.018733587099793503,0.03065930341447597,0.986176760285533,0.9729397802832235,0.03526044541824914,0.05126367186566369,0.9729397802832235,0.9508273253756824,0.06077189331558102,0.038662328576776046,0.9508273253756824,-0.0,-0.0,1.0,0.0
0.9824899027062916,0.023311306813561406,0.018582098425525346,0.9824899027062916,NORMAL,0.9904198734681563,0.012873932637100098,0.01604769841629316,0.9904198734681563,0.9610914334352383,0.05455937556885544,0.07876510620737114,0.9610914334352383,0.9857986196852112,0.019154208593509206,0.03169535446482416,0.9857986196852112,0.973848733963731,0.03428761890376845,0.05000091637720411,0.973848733963731,0.9514829554729666,0.059868260038005584,0.03795723087576664,0.9514829554729666,-0.0,-0.0,1.0,0.0
0.9817145968032488,0.024330339532626075,0.019572641435004534,0.9817145968032488,NORMAL,0.9904198734681563,0.012873932637100098,0.01604769841629316,0.9904198734681563,0.9625026384755255,0.05226759903034157,0.07590650862026986,0.9625026384755255,0.9864780225921577,0.01831758301696561,0.030268595831882152,0.9864780225921577,0.9753101951242978,0.032575162334281274,0.047029116508650964,0.9753101951242978,0.9549756638730464,0.05445757253635006,0.030345912736708395,0.9549756638730464,-0.0,-0.0,1.0,0.0
0.9811620893231898,0.025077821119037336,0.01853049850489633,0.9811620893231898,NORMAL,0.9901650412814794,0.01321109287382081,0.016150507243487565,0.9901650412814794,0.9638622822072004,0.0503120110725932,0.07147121894159388,0.9638622822072004,0.9859976781722154,0.018926475401342954,0.03181605302569932,0.9859976781722154,0.9753101951242978,0.032575162334281635,0.047497241444264995,0.9753101951242978,0.952591219066933,0.05789889817891997,0.03372124818985926,0.952591219066933,-0.0,-0.0,1.0,0.0
0.9819692255748054,0.023792705591716666,0.01739580717148288,0.9819692255748054,NORMAL,0.9908406057539234,0.012368867658254384,0.01507670535131129,0.9908406057539234,0.9662467270133139,0.04680789531027149,0.06593711470251563,0.9662467270133139,0.986043196117408,0.018913147675310753,0.03224765549004551,0.986043196117408,0.9759857595967416,0.031759249154454876,0.04571534802669437,0.9759857595967416,0.9514579583599885,0.059370017991763856,0.03622522247964693,0.9514579583599885,-0.0,-0.0,1.0,0.0
0.9826248556720897,0.0228321062097224,0.016500465619784986,0.9826248556720897,NORMAL,0.9899301434699623,0.013681638729503546,0.01832211241511166,0.9899301434699623,0.966667459299081,0.04633019828865564,0.06692430443049403,0.966667459299081,0.986043196117408,0.018913147675310753,0.03224765549004551,0.986043196117408,0.9753301294994573,0.03270715037981594,0.04523362298894879,0.9753301294994573,0.9503713482508152,0.06029122237131882,0.03648263586462991,0.9503713482508152,-0.0,-0.0,1.0,0.0
0.9824020572491063,0.02310294737975663,0.018035436412019205,0.9824020572491063,NORMAL,0.9897073450469788,0.013956630062573737,0.018401746108772005,0.9897073450469788,0.9674280969799025,0.04551097438090928,0.06583476579473428,0.9674280969799025,0.986043196117408,0.018913147675310753,0.03224765549004551,0.986043196117408,0.9747313268637244,0.03338288435159798,0.04585445140483195,0.9747313268637244,0.9496851929932911,0.06096167955239571,0.03443991055465996,0.9496851929932911,-0.0,-0.0,1.0,0.0
0.9824020572491063,0.023102947379756992,0.01768878345400683,0.9824020572491063,NORMAL,0.9897073450469788,0.013956630062573737,0.01709793807505504,0.9897073450469788,0.9670073646941353,0.045989435456670405,0.06587839147640044,0.9670073646941353,0.9862659945403913,0.018640317440642876,0.029911297739719896,0.9862659945403913,0.9751073310764738,0.0329736474920607,0.044371572672717345,0.9751073310764738,0.9501734143880317,0.060501282425883776,0.034806155166539246,0.9501734143880317,-0.0,-0.0,1.0,0.0
0.9826248556720897,0.02283210620972204,0.016676933427771705,0.9826248556720897,NORMAL,0.9892297144373186,0.014567982061577535,0.017751499070643623,0.9892297144373186,0.9662467270133139,0.04680789531027149,0.066684298047851,0.9662467270133139,0.9868185020204504,0.0178851969238042,0.027944601618869826,0.9868185020204504,0.9755849616861341,0.0323802367974322,0.041984827252922095,0.9755849616861341,0.9505941466737989,0.0600382753758121,0.03517659772860952,0.9505941466737989,-0.0,-0.0,1.0,0.0
0.9826248556720897,0.02283210620972204,0.016392770996115684,0.9826248556720897,NORMAL,0.989452512860302,0.014293264132986531,0.01844017900039537,0.989452512860302,0.9662467270133139,0.04680789531027149,0.06548474992753912,0.9662467270133139,0.9865957035974668,0.01815835523686582,0.026567322197628807,0.9865957035974668,0.9761228009439722,0.031808971906952845,0.04234039261916399,0.9761228009439722,0.9508489788604754,0.05972741658208663,0.03511668340888955,0.9508489788604754,-0.0,-0.0,1.0,0.0
0.9812936611023617,0.024619373900818288,0.017285963808592764,0.9812936611023617,NORMAL,0.9892297144373186,0.014567982061577535,0.017751499070643623,0.9892297144373186,0.9699012704584823,0.04110097958655507,0.055690368664515065,0.9699012704584823,0.9861180729878068,0.018765707647947008,0.027020438365379245,0.9861180729878068,0.977793900908755,0.02969067709099168,0.04182610777344064,0.977793900908755,0.9488905324930679,0.06227966374822717,0.03717434707526218,0.9488905324930679,-0.0,-0.0,1.0,0.0
0.9812936611023617,0.024619373900818288,0.017285963808592764,0.9812936611023617,NORMAL,0.9900368506889342,0.013263395365856686,0.015114201380816698,0.9900368506889342,0.9699012704584823,0.04110097958655507,0.055690368664515065,0.9699012704584823,0.9848049278269261,0.020375768571092582,0.028725504756316498,0.9848049278269261,0.9785692068117975,0.02868011490246407,0.04088221708222341,0.9785692068117975,0.9478750626255693,0.06337733038558638,0.03473224693949802,0.9478750626255693,-0.0,-0.0,1.0,0.0
0.9814915949651454,0.02439438533136034,0.015608458990310256,0.9814915949651454,NORMAL,0.9902596491119178,0.012988154402493823,0.014861366405254857,0.9902596491119178,0.9699012704584823,0.04110097958655507,0.053508074431059226,0.9699012704584823,0.9840296219238835,0.021399601995997296,0.03159315005147137,0.9840296219238835,0.9785692068117975,0.02868011490246407,0.0429706766353978,0.9785692068117975,0.9481727379189517,0.06298768524089243,0.03313004343488866,0.9481727379189517,-0.0,-0.0,1.0,0.0
0.982953056125712,0.022652974235704986,0.014266665709478082,0.982953056125712,NORMAL,0.9905573244053002,0.012564202851526117,0.0142541524875307,0.9905573244053002,0.9695252662457328,0.04150474380135046,0.0536068245777493,0.9695252662457328,0.9842844541105603,0.02106669321172708,0.03038428806747443,0.9842844541105603,0.9803495828292392,0.026163030199110815,0.03843759742650121,0.9803495828292392,0.949680080313892,0.06161020476232054,0.034306746567768096,0.949680080313892,-0.0,-0.0,1.0,0.0
0.9824152168678739,0.02323349301198635,0.014038914531812535,0.9824152168678739,NORMAL,0.989452512860302,0.014293264132986531,0.01790704343724141,0.989452512860302,0.9685097963782344,0.04265093492244543,0.054938043591565774,0.9685097963782344,0.9836088896381164,0.021897260054683575,0.0292918115738533,0.9836088896381164,0.9807703151150063,0.025668913370462485,0.03679195603391893,0.9807703151150063,0.949680080313892,0.06161020476232054,0.034306746567768096,0.949680080313892,-0.0,-0.0,1.0,0.0
0.9819269954731336,0.023730116872806482,0.013246264040707719,0.9819269954731336,NORMAL,0.9892297144373186,0.014567982061577535,0.01942023388602193,0.9892297144373186,0.9674943265107361,0.04379463135189694,0.05590961134409396,0.9674943265107361,0.9845821294039425,0.02064778943192155,0.02700033212894586,0.9845821294039425,0.9805723812522226,0.025893472114256376,0.03808747977901187,0.9805723812522226,0.9501577109235523,0.061047516311666966,0.03498225685729154,0.9501577109235523,-0.0,-0.0,1.0,0.0
0.9819269954731333,0.023730116872806475,0.013736190299409801,0.9819269954731333,NORMAL,0.9885541499648747,0.015407307796515972,0.019129945015229965,0.9885541499648747,0.9661811813498554,0.045339319798934616,0.05618986679422741,0.9661811813498554,0.9845821294039425,0.02064778943192191,0.02674499296116543,0.9845821294039425,0.9801516489664555,0.026387388383124932,0.03965494058188723,0.9801516489664555,0.9493970732427306,0.06183837675280931,0.03510208292182121,0.9493970732427306,-0.0,-0.0,1.0,0.0
0.9809537557073073,0.02497304935948787,0.01504227292720171,0.9809537557073073,NORMAL,0.9885541499648747,0.015407307796515972,0.01933682290173513,0.9885541499648747,0.965272227669348,0.04629357637184085,0.05775731929274254,0.965272227669348,0.9857334395197346,0.01920354425677025,0.02487328722210142,0.9857334395197346,0.9821100953338634,0.023671188528360233,0.034412144338231004,0.9821100953338634,0.9504125431102292,0.06073708565947182,0.035492121601078286,0.9504125431102292,-0.0,-0.0,1.0,0.0
0.9807309572843237,0.025242925933915514,0.014472912938583247,0.9807309572843237,NORMAL,0.9885541499648747,0.015407307796515972,0.01933682290173513,0.9885541499648747,0.9646734250336149,0.046953492967101496,0.05926823176954313,0.9646734250336149,0.9855355056569509,0.019430590134814723,0.024278419876803816,0.9855355056569509,0.9824077706272456,0.0232540274510449,0.03302460736344414,0.9824077706272456,0.9523671391777604,0.0589154857145525,0.03665305816148141,0.9523671391777604,-0.0,-0.0,1.0,0.0
0.9815062631873663,0.02422567338401209,0.014339614697210349,0.9815062631873663,NORMAL,0.9882564746714925,0.015829530335333655,0.019440655265863447,0.9882564746714925,0.9651616464283552,0.04647776260992025,0.05914426470158774,0.9651616464283552,0.9860131362666111,0.01882392932356959,0.025081534918247824,0.9860131362666111,0.9816324647242031,0.024273017043279978,0.033761868921724496,0.9816324647242031,0.9553329388767875,0.055529057807908073,0.034623451965408454,0.9553329388767875,-0.0,-0.0,1.0,0.0
0.9817290616103497,0.023955343535214984,0.014218042073218903,0.9817290616103497,NORMAL,0.986674032516834,0.01815885391741381,0.02204057829264559,0.986674032516834,0.9648514953835807,0.04677054131147286,0.059514952522495994,0.9648514953835807,0.9860131362666111,0.018823929323570313,0.02619201619819681,0.9860131362666111,0.9827837748399951,0.022837490218442176,0.03207233380188826,0.9827837748399951,0.9553329388767875,0.055529057807908073,0.034623451965408454,0.9553329388767875,-0.0,-0.0,1.0,0.0
0.9817290616103497,0.023955343535214984,0.014218042073218903,0.9817290616103497,NORMAL,0.9857007927510081,0.019413523594425393,0.021935044241822407,0.9857007927510081,0.967235940189694,0.04325383105491583,0.05395606448531091,0.967235940189694,0.9848618261508192,0.020269040763222928,0.0276491705372028,0.9848618261508192,0.9832614054496553,0.022234230847134405,0.03222212200293292,0.9832614054496553,0.956646084037668,0.05401708641600208,0.03422624484721919,0.956646084037668,-0.0,-0.0,1.0,0.0
0.9810734315130655,0.024914288685974232,0.01682115321846047,0.9810734315130655,NORMAL,0.9833163479448944,0.023059243561628383,0.028631203786629124,0.9833163479448944,0.9669507406477041,0.043510286553884774,0.05482865238876185,0.9669507406477041,0.9839528724703114,0.021266537304147126,0.02792287433181309,0.9839528724703114,0.9834842038726387,0.021962946809768444,0.03182582092432494,0.9834842038726387,0.95700403884157,0.05349963707268596,0.03174263514943805,0.95700403884157,-0.0,-0.0,1.0,0.0
0.980298125610023,0.02593053121077582,0.017852261958948446,0.980298125610023,NORMAL,0.9827638404648353,0.023808704279429327,0.028098114119338047,0.9827638404648353,0.9651313246832356,0.045716147938691214,0.060460784698369956,0.9651313246832356,0.9829796327044853,0.02251457046607609,0.030969027468575477,0.9829796327044853,0.9836460389177275,0.021798714992929145,0.03231517155440555,0.9836460389177275,0.9568422037964815,0.053653862136381465,0.030772136814518642,0.9568422037964815,-0.0,-0.0,1.0,0.0
0.9798204950003627,0.026530105478284587,0.019890546711635277,0.9798204950003627,NORMAL,0.9823878362520857,0.024224861120125993,0.02962139964449381,0.9823878362520857,0.9646536940735754,0.046296255552867566,0.06223937008528763,0.9646536940735754,0.983177566567269,0.02228875454606954,0.030873566255179393,0.983177566567269,0.9836460389177275,0.021798714992929506,0.032843566224752554,0.9836460389177275,0.9570040388415698,0.053499637072685596,0.03268489979954143,0.9570040388415698,-0.0,-0.0,1.0,0.0
0.9811336401612432,0.02493670628894306,0.018906757993449215,0.9811336401612432,NORMAL,0.9817890336163528,0.024910947794237488,0.028350370490133225,0.9817890336163528,0.9653292585460193,0.04549935584638224,0.06132168161535149,0.9653292585460193,0.9839528724703114,0.021266537304147126,0.030616163128423926,0.9839528724703114,0.9843216033901712,0.020968047986359078,0.032409319298652865,0.9843216033901712,0.9587662134231872,0.05177672100411103,0.03281591173921521,0.9587662134231872,-0.0,-0.0,1.0,0.0
0.9822669008681878,0.023375643226981154,0.018245257069330393,0.9822669008681878,NORMAL,0.9817890336163528,0.024910947794237488,0.028350370490133225,0.9817890336163528,0.9669117007006774,0.04326643360150151,0.06016863158197276,0.9669117007006774,0.9841756708932952,0.02099483633324862,0.030601781054875207,0.9841756708932952,0.9850969092932137,0.01994356109257488,0.03078661049294681,0.9850969092932137,0.9563484087442856,0.05441335798380515,0.033900818715895197,0.9563484087442856,-0.0,-0.0,1.0,0.0
0.9820888305182219,0.023566447757814604,0.01723115800456364,0.9820888305182219,NORMAL,0.9817890336163528,0.024910947794237488,0.028350370490133225,0.9817890336163528,0.9688701470680852,0.040622471850974576,0.05704238501121989,0.9688701470680852,0.9837549386075279,0.02149274403808503,0.030918405050237414,0.9837549386075279,0.9850969092932137,0.01994356109257488,0.03078661049294681,0.9850969092932137,0.9518483470125867,0.06064260340526599,0.04115197314395144,0.9518483470125867,-0.0,-0.0,1.0,0.0
0.9822669008681878,0.023375643226981154,0.018592675553484567,0.9822669008681878,NORMAL,0.9802797686966588,0.02688365660570226,0.03013450798815548,0.9802797686966588,0.9703794119877792,0.038695058578426124,0.0523360842132197,0.9703794119877792,0.9835768682575619,0.02168419132738766,0.030942235101023584,0.9835768682575619,0.9844981066574807,0.020634224690877057,0.03179036901871035,0.9844981066574807,0.949596075651673,0.0628501203627486,0.04160983041266585,0.949596075651673,-0.0,-0.0,1.0,0.0
0.9829424653406317,0.022547266617867677,0.017127957717298102,0.9829424653406317,NORMAL,0.9800249365099821,0.02721365390949931,0.03133856981132542,0.9800249365099821,0.9697237818904948,0.039632579094941264,0.053545445059257776,0.9697237818904948,0.9841756708932952,0.020994836333247897,0.030378423549257835,0.9841756708932952,0.9831384629258061,0.022675735781840997,0.034102280674162,0.9831384629258061,0.9492100979902637,0.06309994177914853,0.04175514503525268,0.9492100979902637,-0.0,-0.0,1.0,0.0
0.9840937754564237,0.021107729067367575,0.017908055643018436,0.9840937754564237,NORMAL,0.979051696744156,0.028450625690388053,0.03181127511411925,0.979051696744156,0.9691712744104358,0.04036187045564925,0.055292969534299546,0.9691712744104358,0.9843736047560786,0.020768429039530585,0.030114876905597478,0.9843736047560786,0.9846477278455001,0.02069058233514091,0.030658569519093896,0.9846477278455001,0.948899946945489,0.06338195092170716,0.04008967026552349,0.948899946945489,-0.0,-0.0,1.0,0.0
0.9840937754564237,0.021107729067367575,0.018519409819374225,0.9840937754564237,NORMAL,0.979051696744156,0.028450625690388053,0.030684634888139817,0.979051696744156,0.9691712744104358,0.04036187045564925,0.055292969534299546,0.9691712744104358,0.9836980402836348,0.02159927847732637,0.030570312036325153,0.9836980402836348,0.9850684601312673,0.020191863525821765,0.02935637041452524,0.9850684601312673,0.9481246410424465,0.06433209620663785,0.038425990727327705,0.9481246410424465,-0.0,-0.0,1.0,0.0
0.9848690813594662,0.020083596800571188,0.017528866809895037,0.9848690813594662,NORMAL,0.9782910590633344,0.02929380977139438,0.031899575992743796,0.9782910590633344,0.9697700770461689,0.03969453516191543,0.05423504008055366,0.9697700770461689,0.9834003649902524,0.02201750684954121,0.032040355984042646,0.9834003649902524,0.9852912585542508,0.01991960059828055,0.03027959760711979,0.9852912585542508,0.9459381300991166,0.06751442682184067,0.04405538342113853,0.9459381300991166,-0.0,-0.0,1.0,0.0
0.9848690813594662,0.020083596800571188,0.018437022027623946,0.9848690813594662,NORMAL,0.9786670632760839,0.02888141345350687,0.03327059887994483,0.9786670632760839,0.9691144469488845,0.040630758010082084,0.054025797530226516,0.9691144469488845,0.9822671042833078,0.023582000687866794,0.03434121669754338,0.9822671042833078,0.985036426367574,0.020253157829929043,0.029889195306493588,0.985036426367574,0.9438099247534096,0.06940543063435342,0.045256238720033024,0.9438099247534096,-0.0,-0.0,1.0,0.0
0.986330542520033,0.018329555892214792,0.017295364660909904,0.986330542520033,NORMAL,0.9786670632760839,0.02888141345350687,0.03327059887994483,0.9786670632760839,0.9704456415186126,0.038888469963926975,0.0544150354369819,0.9704456415186126,0.9820691704205243,0.023807338537382594,0.03479415823831539,0.9820691704205243,0.985036426367574,0.020253157829929043,0.029712120647777875,0.985036426367574,0.9448631749897952,0.0676853051429849,0.041352403376808664,0.9448631749897952,-0.0,-0.0,1.0,0.0
0.9880016424848155,0.01616517729494787,0.015824219033177274,0.9880016424848155,NORMAL,0.9788451336260496,0.028692270491565783,0.03193644596968223,0.9788451336260496,0.9700696373058633,0.03929333601797565,0.05395527440239987,0.9700696373058633,0.9818911000705585,0.023998024670187183,0.03486061421802111,0.9818911000705585,0.9842757886867525,0.021108099655375547,0.03178384927262194,0.9842757886867525,0.9459759104680037,0.06687941084856935,0.04040637465306986,0.9459759104680037,-0.0,-0.0,1.0,0.0
0.9895840846394739,0.013829453082949864,0.013860303282061705,0.9895840846394739,NORMAL,0.9765765362138672,0.031690549604508136,0.03496177731189891,0.9765765362138672,0.9712028980128077,0.037767281103775516,0.052176441441030626,0.9712028980128077,0.9820691704205243,0.023807338537382594,0.03460765489576296,0.9820691704205243,0.984651792899502,0.020689917116738125,0.030357552316185258,0.984651792899502,0.9486750601410734,0.06412886894324724,0.03923171934671664,0.9486750601410734,-0.0,-0.0,1.0,0.0
0.9904945469234349,0.012517285298411722,0.01221788080016602,0.9904945469234349,NORMAL,0.9754432755069229,0.033232596308577375,0.03608643768304541,0.9754432755069229,0.9717554054928669,0.03703488946352589,0.05234041227604201,0.9717554054928669,0.983530631581091,0.022063987885367186,0.032521637184189225,0.983530631581091,0.9866102392669095,0.017949456636540684,0.026051028414657045,0.9866102392669095,0.9491632815358138,0.0636706579003479,0.04223618009932484,0.9491632815358138,-0.0,-0.0,1.0,0.0
0.9907493791101116,0.012179832127382129,0.011989845383398864,0.9907493791101116,NORMAL,0.975265205156957,0.033420216608910064,0.03521756583910345,0.975265205156957,0.9710692502353426,0.037738802636879745,0.05400550928795561,0.9710692502353426,0.9840684708389291,0.021482141962899017,0.0322641324012325,0.9840684708389291,0.9879233844277903,0.016333119340240503,0.02290944168424525,0.9879233844277903,0.9471197619600285,0.06552892161838256,0.04249688761979329,0.9471197619600285,-0.0,-0.0,1.0,0.0
0.9912270097197718,0.01156636852350246,0.010259289020076199,0.9912270097197718,NORMAL,0.9775338025691395,0.03043017525092038,0.032192234496886775,0.9775338025691395,0.9710692502353426,0.037738802636879745,0.05444502117351392,0.9710692502353426,0.9838705369761456,0.02170833291665669,0.0313631832269277,0.9838705369761456,0.9881461828507736,0.01605917085708461,0.02222149883496939,0.9881461828507736,0.945955976092844,0.06675063431992032,0.04022302407035569,0.945955976092844,-0.0,-0.0,1.0,0.0
0.9912270097197718,0.01156636852350246,0.010759977781997613,0.9912270097197718,NORMAL,0.9784442648531004,0.029149744541927484,0.03027343762264945,0.9784442648531004,0.969709606503668,0.03972769605682001,0.057223274775054796,0.969709606503668,0.984093335399129,0.021436755526958045,0.030315724645685906,0.984093335399129,0.9890566451347348,0.014750999360369244,0.020225865252106064,0.9890566451347348,0.9441756000754021,0.06909946438795005,0.042061903433637006,0.9441756000754021,-0.0,-0.0,1.0,0.0
0.9912270097197718,0.01156636852350246,0.011915203189169669,0.9912270097197718,NORMAL,0.9775906300306908,0.03015831761121014,0.029711142769702062,0.9775906300306908,0.9665929023163377,0.04488052675865115,0.062202852180668365,0.9665929023163377,0.9831200956333028,0.022684804693960982,0.031771342395329034,0.9831200956333028,0.9894773774205019,0.014247442807803837,0.018527418501965497,0.9894773774205019,0.9454671293099312,0.06788858375993721,0.042321356316593846,0.9454671293099312,-0.0,-0.0,1.0,0.0
0.9912270097197718,0.01156636852350246,0.012705558412435553,0.9912270097197718,NORMAL,0.9775906300306908,0.03015831761121014,0.029711142769702062,0.9775906300306908,0.9660403948362785,0.04560431633294152,0.06404047345785586,0.9660403948362785,0.9833180294960864,0.0224589894907037,0.03235201665519113,0.9833180294960864,0.9889997468108417,0.014858509175528814,0.020309729933436802,0.9889997468108417,0.945731101671567,0.0676755778670952,0.04219913711251836,0.945731101671567,-0.0,-0.0,1.0,0.0
0.9914818419064486,0.011228416643237796,0.011510093113686802,0.9914818419064486,NORMAL,0.9778134284536741,0.029890462017573116,0.02839120731645059,0.9778134284536741,0.967859810800747,0.04339600838399899,0.0601507132192711,0.967859810800747,0.9836157047894688,0.02204093088806278,0.0303879877342726,0.9836157047894688,0.9903593905425163,0.012793724377830419,0.02013662421172003,0.9903593905425163,0.945731101671567,0.0676755778670952,0.04219913711251836,0.945731101671567,-0.0,-0.0,1.0,0.0
0.9920343493865075,0.01046506448304982,0.00994351877078765,0.9920343493865075,NORMAL,0.9772146258179413,0.030569744606378867,0.02988223185193039,0.9772146258179413,0.9684123182808062,0.04266949767292265,0.05592150035332407,0.9684123182808062,0.9838136386522522,0.021814867699588472,0.03193152240845209,0.9838136386522522,0.9903593905425163,0.012793724377830419,0.02013662421172003,0.9903593905425163,0.945731101671567,0.0676755778670952,0.04219913711251836,0.945731101671567,-0.0,-0.0,1.0,0.0
0.9917795171998309,0.010803404041457116,0.011124962664022279,0.9917795171998309,NORMAL,0.9775906300306908,0.03015831761121014,0.030407081119535485,0.9775906300306908,0.9691876241838486,0.04167946832780037,0.05499345811805224,0.9691876241838486,0.9834737332571978,0.022170464418128862,0.032341177713115246,0.9834737332571978,0.9908370211521766,0.012180802825620313,0.01843893972744918,0.9908370211521766,0.945731101671567,0.0676755778670952,0.04219913711251836,0.945731101671567,-0.0,-0.0,1.0,0.0
0.9917795171998309,0.010803404041457116,0.010334607440756396,0.9917795171998309,NORMAL,0.9789037751915711,0.028573575301761873,0.02948858284403102,0.9789037751915711,0.9691876241838486,0.04167946832780037,0.055881353744988156,0.9691876241838486,0.9838136386522522,0.021814867699589194,0.032539294885444936,0.9838136386522522,0.9908370211521766,0.012180802825620313,0.01843893972744918,0.9908370211521766,0.9470317710810555,0.06634170846025335,0.04260107302650833,0.9470317710810555,-0.0,-0.0,1.0,0.0
0.9920343493865075,0.01046506448304982,0.009753274920099152,0.9920343493865075,NORMAL,0.9772326752267886,0.030696300915557164,0.031493635129689515,0.9772326752267886,0.9688477187887942,0.04202258411059375,0.05609522199100051,0.9688477187887942,0.9851448332219805,0.02001905053098793,0.027998426867471105,0.9851448332219805,0.9916123270552191,0.011142446348374423,0.01591448607979151,0.9916123270552191,0.947229704943839,0.06613364694837749,0.042152639895351,0.947229704943839,-0.0,-0.0,1.0,0.0
0.991658345173758,0.010890377112051996,0.011275801551645342,0.991658345173758,NORMAL,0.9778314778625217,0.03001708264396283,0.029242397727928762,0.9778314778625217,0.9696707575886224,0.04120309367951212,0.054839322045686194,0.9696707575886224,0.9844892031246963,0.020984065248058112,0.02941900399336847,0.9844892031246963,0.9929435216249474,0.009317619919870413,0.013041275088398998,0.9929435216249474,0.947229704943839,0.06613364694837749,0.041867995576227356,0.947229704943839,-0.0,-0.0,1.0,0.0
0.9908047103513483,0.011928983632552495,0.012027020724551541,0.9908047103513483,NORMAL,0.9795025778273044,0.02789183351471534,0.027237345442270276,0.9795025778273044,0.9702085968464605,0.04064040074748305,0.05361030274088709,0.9702085968464605,0.9852963393763118,0.01969109959019947,0.02800524967845127,0.9852963393763118,0.9926458463315649,0.009743584520792716,0.013399464759364477,0.9926458463315649,0.9485608995135673,0.06446903833709682,0.04255699416489677,0.9485608995135673,-0.0,-0.0,1.0,0.0
0.9908047103513483,0.011928983632552495,0.011074350355120917,0.9908047103513483,NORMAL,0.9793245074773383,0.028081256064898148,0.028760630967426048,0.9793245074773383,0.9715682405781352,0.038651707107817915,0.049913245323313794,0.9715682405781352,0.98640115092131,0.017975479962786166,0.026754574664305503,0.98640115092131,0.9917922115091552,0.010784231048963349,0.015259718579973432,0.9917922115091552,0.9479357945765228,0.06504048022012159,0.039693189916200085,0.9479357945765228,-0.0,-0.0,1.0,0.0
0.9900294044483057,0.012965864092215035,0.011895405802475523,0.9900294044483057,NORMAL,0.9787866682195003,0.02865655780982662,0.02822634166785946,0.9787866682195003,0.9722438050505791,0.03784332080166481,0.04726029585171174,0.9722438050505791,0.9861034756279276,0.018395987399853105,0.026313778294943486,0.9861034756279276,0.991494536215773,0.011209254929913906,0.014619013452227193,0.991494536215773,0.9462269142428532,0.06766371712750745,0.04321242314524045,0.9462269142428532,-0.0,-0.0,1.0,0.0
0.9900294044483057,0.012965864092215035,0.01113870884156375,0.9900294044483057,NORMAL,0.9787866682195003,0.02865655780982662,0.02695008686044861,0.9787866682195003,0.9727320264453196,0.03735891280643027,0.04722967210047903,0.9727320264453196,0.985328169724885,0.019422770757603722,0.028799646066425294,0.985328169724885,0.991494536215773,0.011209254929913906,0.013926627244843835,0.991494536215773,0.9462269142428532,0.06766371712750745,0.04562396851567422,0.9462269142428532,-0.0,-0.0,1.0,0.0
0.9902522028712895,0.01269055828631475,0.01061653715017476,0.9902522028712895,NORMAL,0.9787866682195003,0.02865655780982662,0.0272469087143037,0.9787866682195003,0.9724218754005448,0.03765712962182111,0.04725799723475023,0.9724218754005448,0.985328169724885,0.019422770757604083,0.02787851770033205,0.985328169724885,0.9917493684024498,0.010871118472428401,0.013806040299026,0.9917493684024498,0.9458689594389512,0.06816952555336542,0.044471786897932616,0.9458689594389512,-0.0,-0.0,1.0,0.0
0.9905498781646717,0.012266520521953164,0.010325107214715159,0.9905498781646717,NORMAL,0.98049554855317,0.0258668521568765,0.02331031064006626,0.98049554855317,0.9733323376845059,0.03639045212625005,0.042515643416555976,0.9733323376845059,0.9845210334732694,0.020715999064879684,0.030595177905015553,0.9845210334732694,0.9917493684024498,0.010871118472428401,0.01560046839442112,0.9917493684024498,0.9444577543986638,0.07039523904278973,0.04744989196239853,0.9444577543986638,-0.0,-0.0,1.0,0.0
0.9920591430843657,0.01025004226204979,0.008332930168363908,0.9920591430843657,NORMAL,0.98049554855317,0.0258668521568765,0.023723624026694642,0.98049554855317,0.9733323376845059,0.03639045212625005,0.0404515099286283,0.9733323376845059,0.9838454690008255,0.021547013270894186,0.030492684419154897,0.9838454690008255,0.9909740624994072,0.011909833084284633,0.017660482595306785,0.9909740624994072,0.9453667080791716,0.06948663551723817,0.04856395887749659,0.9453667080791716,-0.0,-0.0,1.0,0.0
0.9920591430843657,0.010250042262050155,0.008836782743519954,0.9920591430843657,NORMAL,0.98049554855317,0.02586685215687578,0.023516746140189476,0.98049554855317,0.9685264841235453,0.04619985386465316,0.05145760035555991,0.9685264841235453,0.9843230996104857,0.020942452065968443,0.03000631474667721,0.9843230996104857,0.990063600215446,0.013223205938969338,0.018863023742097192,0.990063600215446,0.9480910582803395,0.06577641317956899,0.04562673435475343,0.9480910582803395,-0.0,-0.0,1.0,0.0
0.9915066356043065,0.011013533554902134,0.009422071770356559,0.9915066356043065,NORMAL,0.9802727501301863,0.026136394242469156,0.02403283086088156,0.9802727501301863,0.967225814714057,0.04759518187774816,0.05260203843646497,0.967225814714057,0.9862815459778935,0.01820343448616696,0.025440057436293944,0.9862815459778935,0.989585969605786,0.013835136777362058,0.019949396823735074,0.989585969605786,0.9489446931027493,0.06483193094267495,0.04533556195742937,0.9489446931027493,-0.0,-0.0,1.0,0.0
0.9917614677909835,0.0106753425984802,0.010005299288329413,0.9917614677909835,NORMAL,0.9814240602459785,0.02470512089124194,0.02389125520317228,0.9814240602459785,0.9656274700111864,0.04938858157365855,0.053910392920238616,0.9656274700111864,0.9865363781645702,0.01786891289918622,0.02498972423102854,0.9865363781645702,0.9884527088988413,0.015419171379437914,0.02202139883662456,0.9884527088988413,0.9489446931027493,0.06483193094267495,0.04596151342148739,0.9489446931027493,-0.0,-0.0,1.0,0.0
0.9917614677909835,0.0106753425984802,0.00966074325326565,0.9917614677909835,NORMAL,0.9816468586689621,0.02443492344097649,0.02302179433707321,0.9816468586689621,0.9653726378245097,0.04970749545272033,0.05667698866657333,0.9653726378245097,0.984953936009912,0.02019081607600587,0.02675005929212253,0.984953936009912,0.9884527088988413,0.015419171379437914,0.023250967851358578,0.9884527088988413,0.9486470178093669,0.06522134708487648,0.046080269049877186,0.9486470178093669,-0.0,-0.0,1.0,0.0
0.9919842662139667,0.010399030488100426,0.010156193414633701,0.9919842662139667,NORMAL,0.9816468586689621,0.024434923440976128,0.02335223443552843,0.9816468586689621,0.971491636546351,0.03838995725489559,0.04223502005030239,0.971491636546351,0.9853253518969539,0.019706825487275485,0.0267524230438407,0.9853253518969539,0.9884527088988413,0.015419171379437914,0.023345234667472233,0.9884527088988413,0.952399417718822,0.060714499482672435,0.04324984027263222,0.952399417718822,-0.0,-0.0,1.0,0.0
0.9925830688496998,0.009696749776475945,0.009432164839214406,0.9925830688496998,NORMAL,0.9818249290189278,0.024244366150463395,0.022894551730474944,0.9818249290189278,0.971849591350253,0.037858100607043164,0.04147611854530999,0.971849591350253,0.9853253518969539,0.019706825487275485,0.02706605635686619,0.9853253518969539,0.9884527088988413,0.015419171379437914,0.023320882788177417,0.9884527088988413,0.9550096438836375,0.05797994506478977,0.0417998640742281,0.9550096438836375,-0.0,-0.0,1.0,0.0
0.9935563086155261,0.008423534470054438,0.009200472950856148,0.9935563086155261,NORMAL,0.9828403988864263,0.023062175690792504,0.0221929075073874,0.9828403988864263,0.9703403264305589,0.0397899207162902,0.04346829559166126,0.9703403264305589,0.98512629340995,0.01993424050081785,0.02772796209853534,0.98512629340995,0.9886755073218249,0.015144866198493031,0.021808861560248565,0.9886755073218249,0.9560554811064491,0.05693164268549342,0.04257477869045929,0.9560554811064491,-0.0,-0.0,1.0,0.0
0.9927810027124835,0.009466083957741013,0.011098756706546704,0.9927810027124835,NORMAL,0.9833180294960866,0.022458989490703705,0.02173979133963696,0.9833180294960866,0.9682569381044541,0.04223711345497194,0.04685332799491773,0.9682569381044541,0.983968441759409,0.021380705182704844,0.029849550745893075,0.983968441759409,0.9886755073218249,0.015144866198493756,0.020791239707491523,0.9886755073218249,0.9558575472436655,0.05714380467548206,0.04471132340635057,0.9558575472436655,-0.0,-0.0,1.0,0.0
0.9929789365752671,0.009235325390831134,0.01043567128983617,0.9929789365752671,NORMAL,0.9833180294960866,0.022458989490702984,0.021532006467888505,0.9833180294960866,0.9686776703902212,0.04175635223010229,0.04480991352154798,0.9686776703902212,0.9842678083896855,0.020960737099273305,0.028645454819953238,0.9842678083896855,0.9892743099575579,0.01444784283061146,0.01951893243566675,0.9892743099575579,0.9549470849597045,0.05836671773369336,0.047217654518498145,0.9549470849597045,-0.0,-0.0,1.0,0.0
0.9935777392110001,0.008531626586457303,0.010511598172977797,0.9935777392110001,NORMAL,0.9831399591461205,0.022650173302897383,0.020204948723516025,0.9831399591461205,0.968900468813205,0.04149373166382198,0.044372259891222225,0.968900468813205,0.9835884054827392,0.02179360583248417,0.02807498819472829,0.9835884054827392,0.9901279447799677,0.013413044422807783,0.01762218564286809,0.9901279447799677,0.9540366226757433,0.05958719511216656,0.04787915544261697,0.9540366226757433,-0.0,-0.0,1.0,0.0
0.9933549407880167,0.008808808892608409,0.01044292694628075,0.9933549407880167,NORMAL,0.982364653243078,0.023670426504215344,0.020809098497386224,0.982364653243078,0.9703282270420251,0.039981099234379126,0.04192175601085843,0.9703282270420251,0.9831080610627968,0.02239896387380342,0.028279649544727833,0.9831080610627968,0.9897519405672179,0.013836404646182765,0.018362572468253457,0.9897519405672179,0.9553678172454716,0.0579001766654629,0.04903216526482132,0.9553678172454716,-0.0,-0.0,1.0,0.0
0.9929342085022494,0.009316690536043865,0.01215956350321017,0.9929342085022494,NORMAL,0.9839470953977362,0.021360393211729556,0.0181365725320733,0.9839470953977362,0.9706134265840152,0.03972262143668592,0.042040885227448324,0.9706134265840152,0.9821292915255738,0.02364829034655352,0.027539066254454358,0.9821292915255738,0.9897519405672179,0.013836404646183126,0.018519874415962777,0.9897519405672179,0.9542345565385272,0.05937598926315763,0.049591075304430195,0.9542345565385272,-0.0,-0.0,1.0,0.0
0.9927362746394659,0.009547422321130065,0.01269767929615888,0.9927362746394659,NORMAL,0.9841251657477021,0.021168812318882263,0.01703861243827948,0.9841251657477021,0.9719265717448959,0.03816269399760404,0.04129585457235113,0.9719265717448959,0.9797312987376074,0.027282590039748335,0.030441037211942506,0.9797312987376074,0.9886186798602735,0.015420709088767151,0.021255205916250606,0.9886186798602735,0.9542345565385272,0.05937598926315763,0.049591075304430195,0.9542345565385272,-0.0,-0.0,1.0,0.0
0.9929911068261427,0.009208428695701137,0.011980683177532528,0.9929911068261427,NORMAL,0.983572658267643,0.021919972482880884,0.016999714004568605,0.983572658267643,0.9721493701678793,0.037898304720192934,0.04054402294148547,0.9721493701678793,0.9810700569128453,0.02549656201846244,0.027789384120648707,0.9810700569128453,0.9877650450378637,0.01645215993988593,0.022660357787994037,0.9877650450378637,0.9542345565385272,0.05937598926315763,0.0514071310223179,0.9542345565385272,-0.0,-0.0,1.0,0.0
0.9921374720037328,0.010249903373820387,0.013124926440184542,0.9921374720037328,NORMAL,0.9828120205868214,0.02277230732960596,0.01656588763338882,0.9828120205868214,0.9719265717448959,0.038162693997603685,0.04067185618877722,0.9719265717448959,0.9810700569128453,0.02549656201846244,0.02837178489300496,0.9810700569128453,0.9886755073218246,0.015144866198493026,0.02116074236282761,0.9886755073218246,0.9550098624415696,0.058415023696554075,0.05134329422088637,0.9550098624415696,-0.0,-0.0,1.0,0.0
0.9919146735807493,0.010526292378527414,0.013835631763800846,0.9919146735807493,NORMAL,0.9832327528725885,0.022275442053872888,0.017364003889270813,0.9832327528725885,0.9724790792249548,0.03742994972065419,0.040620188688783046,0.9724790792249548,0.9818497679630646,0.024476187510889893,0.02634956225837432,0.9818497679630646,0.9886755073218246,0.015144866198493026,0.02152605826852391,0.9886755073218246,0.9564210674818571,0.05614444152209408,0.04568533885560915,0.9564210674818571,-0.0,-0.0,1.0,0.0
0.9923923041904096,0.009911297561962618,0.014112823170306519,0.9923923041904096,NORMAL,0.9834875850592654,0.021943038766360102,0.016175528735280113,0.9834875850592654,0.9722562808019714,0.037694541880482615,0.04119023100576295,0.9722562808019714,0.982149134593341,0.02405809527806186,0.025937577801217648,0.982149134593341,0.9884527088988413,0.015419171379438277,0.021666890044994568,0.9884527088988413,0.9567790222857591,0.0556279195464666,0.04367437651384525,0.9567790222857591,-0.0,-0.0,1.0,0.0
0.9923923041904096,0.009911297561962618,0.014112823170306519,0.9923923041904096,NORMAL,0.9838635892720148,0.02152552310730132,0.015626080866382425,0.9838635892720148,0.9718355485162041,0.03817897145075297,0.04261747346470199,0.9718355485162041,0.9805577012900767,0.02636690589628734,0.02900530721977682,0.9805577012900767,0.9895859696057858,0.013835136777361695,0.019275853097187805,0.9895859696057858,0.9596729280501058,0.0508230917493358,0.03823835439109405,0.9596729280501058,-0.0,-0.0,1.0,0.0
0.9923923041904096,0.009911297561962618,0.014112823170306519,0.9923923041904096,NORMAL,0.9849684008170126,0.01981451957789781,0.013779913100515526,0.9849684008170126,0.9701266681825346,0.04092154435766778,0.047105778796731626,0.9701266681825346,0.9801345784799584,0.026861883400160127,0.029194397227448595,0.9801345784799584,0.9895859696057858,0.013835136777361695,0.01847282697441407,0.9895859696057858,0.9598957264730894,0.05056519623511922,0.03473051249033694,0.9598957264730894,-0.0,-0.0,1.0,0.0
0.9923923041904096,0.009911297561962618,0.014112823170306519,0.9923923041904096,NORMAL,0.9849684008170126,0.01981451957789781,0.013513543771706002,0.9849684008170126,0.9690218566375368,0.04258202448222766,0.050419205405409034,0.9690218566375368,0.9789767268294176,0.02829258816552031,0.03312892817988769,0.9789767268294176,0.9907372797215779,0.01237538957106245,0.016122640417240007,0.9907372797215779,0.9627683926739433,0.046602749496550806,0.031380002091510255,0.9627683926739433,-0.0,-0.0,1.0,0.0
0.993167610093452,0.008869509550300924,0.012421417301121129,0.993167610093452,NORMAL,0.9849684008170126,0.01981451957789781,0.012562886133042657,0.9849684008170126,0.9690218566375368,0.04258202448222766,0.04958573142369954,0.9690218566375368,0.9789767268294176,0.028292588165520667,0.03393274296886907,0.9789767268294176,0.9909153500715437,0.012180818736547779,0.015146780521762975,0.9909153500715437,0.9627683926739433,0.046602749496550806,0.02970105894382508,0.9627683926739433,-0.0,-0.0,1.0,0.0
0.9923139752710423,0.009911463627485224,0.013446366842097119,0.9923139752710423,NORMAL,0.9851911992399962,0.01954219987254682,0.01231376613494422,0.9851911992399962,0.96876702445086,0.04290394117246246,0.050826074573042716,0.96876702445086,0.9789767268294176,0.028292588165520667,0.03393274296886907,0.9789767268294176,0.9899421103057174,0.0134469121998366,0.015481495230974751,0.9899421103057174,0.9645487686913851,0.04416107434960928,0.02793305661411781,0.9645487686913851,-0.0,-0.0,1.0,0.0
0.9927347075568094,0.009404156207212957,0.0125181591202392,0.9927347075568094,NORMAL,0.9844158933369536,0.020567103764767634,0.012162420057193476,0.9844158933369536,0.9674663550413718,0.04430407212770081,0.04957617135459657,0.9674663550413718,0.9789767268294176,0.028292588165520667,0.03393274296886907,0.9789767268294176,0.9894644796960572,0.014058658411847755,0.015203134217801164,0.9894644796960572,0.9643259702684016,0.044421813081861994,0.028995816145746593,0.9643259702684016,-0.0,-0.0,1.0,0.0
0.9933335101925426,0.008700734952688605,0.01134072447377977,0.9933335101925426,NORMAL,0.9853263556209148,0.019268147272913823,0.011468660955849731,0.9853263556209148,0.9671264496463173,0.04464560423279812,0.04956072720984828,0.9671264496463173,0.9789767268294176,0.028292588165520667,0.03393274296886907,0.9789767268294176,0.9896624135588408,0.013829601906737187,0.014916825099800362,0.9896624135588408,0.9639499660556522,0.04482177684291697,0.03153859150077902,0.9639499660556522,-0.0,-0.0,1.0,0.0
0.9933335101925425,0.008700734952688605,0.01080709380887918,0.9933335101925425,NORMAL,0.9861016615239572,0.018241244194575595,0.011920944126560171,0.9861016615239572,0.9668716174596403,0.044966303491097905,0.05104109487696631,0.9668716174596403,0.9807672186196861,0.025765666322967562,0.029906188334769247,0.9807672186196861,0.9890636109231079,0.01452727982416733,0.015717070396257398,0.9890636109231079,0.9662185634678346,0.041894991367285174,0.028627196443580985,0.9662185634678346,-0.0,-0.0,1.0,0.0
0.9928558795828824,0.009316904452766889,0.011306632673329648,0.9928558795828824,NORMAL,0.9874328560936855,0.01643629491552864,0.010734911051255031,0.9874328560936855,0.9664508851738735,0.0454447034598681,0.0501489165627639,0.9664508851738735,0.9821864418704294,0.023373359225781834,0.029302511086595665,0.9821864418704294,0.9898389168261504,0.013492653843511919,0.015668664805046424,0.9898389168261504,0.9675782071995093,0.03991669940888101,0.027506827982652596,0.9675782071995093,-0.0,-0.0,1.0,0.0
0.9940071896986744,0.007846993924267624,0.009696643924304917,0.9940071896986744,NORMAL,0.9874328560936855,0.01643629491552864,0.011970213009042014,0.9874328560936855,0.9657753207014296,0.04624264192163737,0.051653928854483944,0.9657753207014296,0.9823655239837474,0.02318205379592741,0.027393007174497094,0.9823655239837474,0.9887056561192059,0.015077494013460513,0.018274297482836495,0.9887056561192059,0.967427774544556,0.039980873250019436,0.028512507730696926,0.967427774544556,-0.0,-0.0,1.0,0.0
0.9937523575119976,0.008186688379035982,0.009129462456563719,0.9937523575119976,NORMAL,0.9869552254840253,0.017045010823413444,0.013705092221128416,0.9869552254840253,0.969715063688588,0.040278480083806634,0.046035359574537305,0.969715063688588,0.9812076723332064,0.02462050048778511,0.02943729999227108,0.9812076723332064,0.9893612862164903,0.014104312830227268,0.017368254448392247,0.9893612862164903,0.9669474301246136,0.04056689719670066,0.030513798083930108,0.9669474301246136,-0.0,-0.0,1.0,0.0
0.9937523575119976,0.008186688379035254,0.009271463453886047,0.9937523575119976,NORMAL,0.9877305313870677,0.01601461502056242,0.013468445382936858,0.9877305313870677,0.9710157330980762,0.038869423267715454,0.04492163871271512,0.9710157330980762,0.9795270774822605,0.02676129738671578,0.03339297720431381,0.9795270774822605,0.9895840846394739,0.013829453082949503,0.016792629595754328,0.9895840846394739,0.9664670857046711,0.04115231918979008,0.03326305639165351,0.9664670857046711,-0.0,-0.0,1.0,0.0
0.9937523575119974,0.008186688379035252,0.009461707304574544,0.9937523575119974,NORMAL,0.9877305313870677,0.01601461502056242,0.013973165814800355,0.9877305313870677,0.9713556384931307,0.03852437029106698,0.04468210756687631,0.9713556384931307,0.9783692258317195,0.028191193858611605,0.036701156081519304,0.9783692258317195,0.9893612862164903,0.014104312830227268,0.01727375330057101,0.9893612862164903,0.9664670857046711,0.04115231918979008,0.03326305639165351,0.9664670857046711,-0.0,-0.0,1.0,0.0
0.992977051608955,0.00922963112104937,0.010699693931567686,0.992977051608955,NORMAL,0.988703771152894,0.014753936431888501,0.012799004740986473,0.988703771152894,0.971193803448042,0.03868367292064373,0.04457643591498545,0.971193803448042,0.9779910852313976,0.02860471443799605,0.035284209486446574,0.9779910852313976,0.9898389168261507,0.013492653843511558,0.016159362526540932,0.9898389168261507,0.9651464794917399,0.04270292873474137,0.03734396966937285,0.9651464794917399,-0.0,-0.0,1.0,0.0
0.9927791177461713,0.009460390377895731,0.01113196976658094,0.9927791177461713,NORMAL,0.988703771152894,0.014753936431888501,0.012799004740986473,0.988703771152894,0.9698341597163673,0.04067151257369232,0.04927348305967912,0.9698341597163673,0.9779910852313976,0.028604714437995688,0.034284784239501875,0.9779910852313976,0.9907493791101116,0.012179832127382492,0.014201511401405268,0.9907493791101116,0.9633559877014717,0.04515659751750562,0.04011604769830644,0.9633559877014717,-0.0,-0.0,1.0,0.0
0.9927791177461713,0.009460390377896095,0.011094287647357237,0.9927791177461713,NORMAL,0.9882830388671269,0.015256874108240186,0.013638176237284746,0.9882830388671269,0.9681252793826977,0.043403758522735314,0.0528987164826602,0.9681252793826977,0.9789067205965175,0.027317928262727626,0.030486412316152917,0.9789067205965175,0.9907493791101116,0.012179832127382492,0.014755219786479598,0.9907493791101116,0.9624418695114157,0.04611019209571133,0.040026498215268026,0.9624418695114157,-0.0,-0.0,1.0,0.0
0.9921803151104382,0.01016295475678016,0.012127704065352489,0.9921803151104382,NORMAL,0.9894162995740713,0.013672931058018893,0.012284686139273887,0.9894162995740713,0.9670794421598861,0.04448148707263541,0.053330460993984384,0.9670794421598861,0.9785948073298975,0.02762201450825252,0.030440281690627537,0.9785948073298975,0.9898957442877018,0.013216357626156798,0.015111587550474417,0.9898957442877018,0.9611031113361779,0.047832252822865955,0.03918357407589684,0.9611031113361779,-0.0,-0.0,1.0,0.0
0.9910470544034938,0.011755424251045025,0.014035617848266329,0.9910470544034938,NORMAL,0.9901916054771138,0.012637258846829447,0.010489750980401988,0.9901916054771138,0.9668246099732095,0.04480221284140484,0.053188459996662066,0.9668246099732095,0.9781452327735742,0.02804951229850525,0.031416613772223136,0.9781452327735742,0.9882246443229191,0.015389975486494767,0.017282737264058448,0.9882246443229191,0.9595852710476219,0.049731124074282214,0.04156553922493654,0.9595852710476219,-0.0,-0.0,1.0,0.0
0.9902717485004513,0.01279269886791242,0.01568191055224473,0.9902717485004513,NORMAL,0.9898939301837316,0.013061029074288003,0.011204001459990063,0.9898939301837316,0.9641855363955395,0.0493448463401912,0.060780151910661585,0.9641855363955395,0.9793030844241151,0.026619790365502202,0.029295025124865412,0.9793030844241151,0.9879269690295368,0.01581205937440113,0.019047726386067398,0.9879269690295368,0.9568454415839472,0.05354905817620456,0.04335329446775019,0.9568454415839472,-0.0,-0.0,1.0,0.0
0.9896729458647184,0.013491443909378467,0.016526636181911053,0.9896729458647184,NORMAL,0.9898939301837316,0.013061029074287276,0.011751112532795259,0.9898939301837316,0.9612916306311925,0.054178212826167915,0.06777858250806688,0.9612916306311925,0.9783874490589952,0.027907771501800505,0.03334337923531594,0.9783874490589952,0.9879269690295368,0.015812059374401492,0.019047726386067398,0.9879269690295368,0.956033719330902,0.054779429031384996,0.0463979046563448,0.956033719330902,-0.0,-0.0,1.0,0.0
0.9885216357489263,0.014948291841167227,0.018047990010536957,0.9885216357489263,NORMAL,0.9901916054771138,0.01263725884682872,0.011196131915226408,0.9901916054771138,0.9612916306311925,0.054178212826167915,0.07117656338240307,0.9612916306311925,0.9793030844241151,0.026619790365502202,0.029295025124865412,0.9793030844241151,0.9879269690295371,0.015812059374401857,0.019012857790461593,0.9879269690295371,0.9571734190191361,0.05329066588313177,0.04424902055844288,0.9571734190191361,-0.0,-0.0,1.0,0.0
0.9875061658814278,0.016145932832262167,0.02026163330579028,0.9875061658814278,NORMAL,0.990744112957173,0.01187570189713136,0.010279326397896901,0.990744112957173,0.9610688322082089,0.05443568019145486,0.07299549274380393,0.9610688322082089,0.9783874490589952,0.027907771501800505,0.03334337923531594,0.9783874490589952,0.9875509648167876,0.01623354240588332,0.02021943499796163,0.9875509648167876,0.9571734190191359,0.05329066588313246,0.04518815476094741,0.9571734190191359,-0.0,-0.0,1.0,0.0
0.9872833674584445,0.016419679572947855,0.021285010316713784,0.9872833674584445,NORMAL,0.9909420468199566,0.011645905835671782,0.00983467342557875,0.9909420468199566,0.9597681627987207,0.05580814390047578,0.07034980068813794,0.9597681627987207,0.9780093084586732,0.028321409733380615,0.034579590590760614,0.9780093084586732,0.9871302325310205,0.016735248400574745,0.01956876950315605,0.9871302325310205,0.9578745826826105,0.05275532369152356,0.044578645730488475,0.9578745826826105,-0.0,-0.0,1.0,0.0
0.9870854335956607,0.016647652756930715,0.02217353847810035,0.9870854335956607,NORMAL,0.9917173527229991,0.010607018862697973,0.009710348490229384,0.9917173527229991,0.9601080681937751,0.05547340229192205,0.07136999666187169,0.9601080681937751,0.9773499531903816,0.029276747775330826,0.03430274728891251,0.9773499531903816,0.9862197702470593,0.018038986479295215,0.021703686013451445,0.9862197702470593,0.9586395421684367,0.0519474086213631,0.04556271725230976,0.9586395421684367,-0.0,-0.0,1.0,0.0
0.986887499732877,0.01687553319273935,0.022807266080255326,0.986887499732877,NORMAL,0.9919152865857827,0.010376739239132822,0.010197084177320863,0.9919152865857827,0.9603060020565587,0.05525984769089787,0.07073084294035327,0.9603060020565587,0.9780293560973279,0.02845455129444863,0.03330596109767884,0.9780293560973279,0.9855442057746154,0.018873318332464212,0.021880285101294628,0.9855442057746154,0.9584404836814326,0.05216174992487962,0.04742974263256941,0.9584404836814326,-0.0,-0.0,1.0,0.0
0.986887499732877,0.01687553319273935,0.022410144343061662,0.986887499732877,NORMAL,0.992392917195443,0.009761672023055489,0.009219347552456894,0.992392917195443,0.9585971217228894,0.057937826694616855,0.07927065067513073,0.9585971217228894,0.9782284145843321,0.028230566648950486,0.033325006710886194,0.9782284145843321,0.987215305739398,0.01671163383790889,0.019482246517298716,0.987215305739398,0.9580986470057246,0.052497740856568206,0.04562808996221474,0.9580986470057246,-0.0,-0.0,1.0,0.0
0.9867256646877886,0.01704113723023621,0.02180807757544665,0.9867256646877886,NORMAL,0.9929307564532812,0.009167702339169952,0.008693169373083827,0.9929307564532812,0.9575816518553908,0.059052690674192214,0.0811303997805971,0.9575816518553908,0.9792801940640912,0.02711935484963351,0.03282814424643836,0.9792801940640912,0.9873933760893637,0.016518552556592746,0.01928214154072131,0.9873933760893637,0.9609819228262406,0.0491269361974385,0.041979367957413215,0.9609819228262406,-0.0,-0.0,1.0,0.0
0.9867256646877886,0.01704113723023621,0.022655142529097963,0.9867256646877886,NORMAL,0.9927328225904974,0.00939846300878012,0.008175331666398467,0.9927328225904974,0.9575816518553908,0.059052690674192214,0.0811303997805971,0.9575816518553908,0.9801386790843558,0.026103639940298108,0.03006639459351886,0.9801386790843558,0.9867945734536309,0.01721296077823418,0.020077117686802863,0.9867945734536309,0.9603532661565994,0.04971816398974112,0.04063370937361606,0.9603532661565994,-0.0,-0.0,1.0,0.0
0.9869804968744653,0.01670616063873342,0.02190611969392554,0.9869804968744653,NORMAL,0.9921803151104382,0.010162954756780888,0.008919385373775995,0.9921803151104382,0.9564087258132471,0.06020269355124851,0.08321078318426804,0.9564087258132471,0.9812783787725895,0.024540789914390158,0.028019574483768378,0.9812783787725895,0.9863169428439706,0.01782089681021529,0.02067343758131127,0.9863169428439706,0.9600877939519996,0.049940374394814316,0.03982251061728522,0.9600877939519996,-0.0,-0.0,1.0,0.0
0.9867256646877886,0.01704113723023621,0.022779433057774683,0.9867256646877886,NORMAL,0.9919254829237617,0.010501422495680817,0.01011485067252475,0.9919254829237617,0.9556565320568706,0.060884314566363264,0.08298591335392173,0.9556565320568706,0.9826457477527397,0.02249903246617363,0.026637411512919613,0.9826457477527397,0.9863169428439706,0.01782089681021529,0.0204675821301466,0.9863169428439706,0.9603440740488282,0.04962252347938059,0.03972673008080984,0.9603440740488282,-0.0,-0.0,1.0,0.0
0.9852163997680945,0.019036202343494436,0.02616561385757157,0.9852163997680945,NORMAL,0.9915675281198597,0.011054712508519485,0.010812084012559606,0.9915675281198597,0.9556565320568706,0.060884314566363264,0.08298591335392173,0.9556565320568706,0.9823894676559115,0.022831948795365056,0.027755988799831308,0.9823894676559115,0.9860941444209873,0.0180939266752911,0.02014767430457251,0.9860941444209873,0.9603440740488282,0.04962252347938059,0.03972673008080984,0.9603440740488282,-0.0,-0.0,1.0,0.0
0.9854391981910782,0.018763635821627152,0.02629374550953541,0.9854391981910782,NORMAL,0.9924211629422693,0.01001453858873936,0.009543071334956677,0.9924211629422693,0.956431837959913,0.05992299821816239,0.08047407519664236,0.956431837959913,0.9823894676559116,0.0228319487953647,0.029208743269944992,0.9823894676559116,0.9857964691276049,0.018514264060917912,0.021698047409121155,0.9857964691276049,0.9603440740488282,0.04962252347938059,0.03972673008080984,0.9603440740488282,-0.0,-0.0,1.0,0.0
0.9854391981910782,0.018763635821627152,0.026434535900074836,0.9854391981910782,NORMAL,0.9924211629422693,0.01001453858874045,0.008484820212942557,0.9924211629422693,0.9581407182935829,0.05725507115158178,0.07525753052313627,0.9581407182935829,0.981368228073257,0.02401684547022662,0.030606654682385513,0.981368228073257,0.9857964691276049,0.018514264060917912,0.021915666636150983,0.9857964691276049,0.9603440740488282,0.04962252347938059,0.03972673008080984,0.9603440740488282,-0.0,-0.0,1.0,0.0
0.9856940303777547,0.018429552766784412,0.025635584152387765,0.9856940303777547,NORMAL,0.9912698528264775,0.011479557407174872,0.009126238535234463,0.9912698528264775,0.9581407182935829,0.05725507115158178,0.07143265895992003,0.9581407182935829,0.9820582819401988,0.023293653785439416,0.02998211703019873,0.9820582819401988,0.9857964691276049,0.018514264060917912,0.02359722505205604,0.9857964691276049,0.9580625868786219,0.05252056373952079,0.04185022682190372,0.9580625868786219,-0.0,-0.0,1.0,0.0
0.9853963550843725,0.01884961375458808,0.027134963141084725,0.9853963550843725,NORMAL,0.9910470544034939,0.011755424251045754,0.009634388821109332,0.9910470544034939,0.9581407182935829,0.05725507115158178,0.06975631503002054,0.9581407182935829,0.9827376848471453,0.022463164426798417,0.028444081178282652,0.9827376848471453,0.9846451590118128,0.019959409570898687,0.025690073474220625,0.9846451590118128,0.959383193091553,0.050995712728921005,0.04103321715790535,0.959383193091553,-0.0,-0.0,1.0,0.0
0.9832760736718762,0.02174904966926616,0.03174103510728307,0.9832760736718762,NORMAL,0.9910470544034939,0.011755424251045754,0.009634388821109332,0.9910470544034939,0.9593136443357263,0.056099112856054796,0.06780323090575903,0.9593136443357263,0.9825386263601412,0.022689402829945457,0.02980084528604245,0.9825386263601412,0.9846451590118128,0.019959409570898687,0.024383118240885335,0.9846451590118128,0.9578280455259086,0.052568930414872705,0.04187559681981232,0.9578280455259086,-0.0,-0.0,1.0,0.0
0.9834379087169648,0.02158481892720279,0.03161801479915865,0.9834379087169648,NORMAL,0.9910470544034939,0.011755424251045754,0.009277832814924454,0.9910470544034939,0.9606267894966071,0.054580995978112244,0.06597979084396573,0.9606267894966071,0.9825386263601412,0.022689402829945096,0.030703756981175227,0.9825386263601412,0.98506589129758,0.019460379683017493,0.02348012129864782,0.98506589129758,0.958849285108563,0.05144408187764376,0.038925969545804275,0.958849285108563,-0.0,-0.0,1.0,0.0
0.9822741228497803,0.022911504680980813,0.032959220410983744,0.9822741228497803,NORMAL,0.9914677866892612,0.011249557810380536,0.009287520235734946,0.9914677866892612,0.9597559925478452,0.05536213125296784,0.06651972713880654,0.9597559925478452,0.9842192212110874,0.020534788863802476,0.028942002319102576,0.9842192212110874,0.986217201413372,0.018014014216475412,0.022170240986494325,0.986217201413372,0.9599889847967972,0.04994659118804217,0.03600706022062373,0.9599889847967972,-0.0,-0.0,1.0,0.0
0.9822741228497803,0.02291150468098117,0.03204052487891956,0.9822741228497803,NORMAL,0.9919454172989214,0.010635192927466206,0.009564711642240615,0.9919454172989214,0.9598745957402306,0.05527044433347628,0.06624657600672733,0.9598745957402306,0.9842192212110874,0.020534788863802476,0.029138784050347994,0.9842192212110874,0.985306739129411,0.019315336190045326,0.025245065401160335,0.985306739129411,0.9619585587003832,0.04732834527357151,0.033233589872606835,0.9619585587003832,-0.0,-0.0,1.0,0.0
0.9830812591013962,0.02162310703820066,0.03001201067654286,0.9830812591013962,NORMAL,0.992143351161705,0.0104048650056091,0.00999209761119017,0.992143351161705,0.9606267894966071,0.054580995978112244,0.06765613477386521,0.9606267894966071,0.9842192212110874,0.020534788863802476,0.027560227620328864,0.9842192212110874,0.9846311746569669,0.020147997085962124,0.02505274292595829,0.9846311746569669,0.9636771485814033,0.04461154276318194,0.03126552068834205,0.9636771485814033,-0.0,-0.0,1.0,0.0
0.9836800617371291,0.02093407528432786,0.02885015525779801,0.9836800617371291,NORMAL,0.9925193553744543,0.009979156403486318,0.00994180471450468,0.9925193553744543,0.9598745957402306,0.05527044433347628,0.06624657600672733,0.9598745957402306,0.9842192212110874,0.020534788863802476,0.02577435223973174,0.9842192212110874,0.9852299772927,0.019456941101685603,0.025031597902161595,0.9852299772927,0.9636771485814033,0.04461154276318194,0.03126552068834205,0.9636771485814033,-0.0,-0.0,1.0,0.0
0.9829047558340867,0.02195626162199691,0.028929500148280246,0.9829047558340867,NORMAL,0.9920986230886872,0.010486108253558817,0.009896551624472566,0.9920986230886872,0.9585614505793498,0.056786310701455886,0.06807001606852063,0.9585614505793498,0.9842192212110874,0.020534788863802476,0.02577435223973174,0.9842192212110874,0.9852299772927002,0.01945694110168561,0.024746953583037953,0.9852299772927002,0.9636771485814033,0.04461154276318194,0.03126552068834205,0.9636771485814033,-0.0,-0.0,1.0,0.0
0.9829047558340867,0.02195626162199691,0.02773912013631448,0.9829047558340867,NORMAL,0.9923214215116707,0.010209658103299147,0.009755719848001908,0.9923214215116707,0.9582637752859676,0.05718258320239577,0.0688183583485588,0.9582637752859676,0.9838592325730723,0.021081903682236516,0.026211507219908652,0.9838592325730723,0.9848539730799505,0.019875849121503364,0.02481806997692608,0.9848539730799505,0.9631215018542982,0.04533527026724634,0.031966018312983055,0.9631215018542982,-0.0,-0.0,1.0,0.0
0.9836800617371291,0.02093407528432786,0.027378148362773556,0.9836800617371291,NORMAL,0.9909617777799961,0.0122821493016753,0.013169552088881268,0.9909617777799961,0.9542650579766229,0.06551705336973612,0.09053748396196025,0.9542650579766229,0.9842373731733942,0.020662879201329826,0.024850196006542747,0.9842373731733942,0.9855096031772349,0.018909728983932266,0.02391605288375963,0.9855096031772349,0.9639012129045172,0.04435035736910412,0.029800388299600543,0.9639012129045172,-0.0,-0.0,1.0,0.0
0.9820976195824709,0.02324414779861264,0.031835546374825635,0.9820976195824709,NORMAL,0.9911597116427795,0.012052382905670947,0.013512938903093363,0.9911597116427795,0.9542650579766229,0.06551705336973612,0.09053748396196025,0.9542650579766229,0.9830976734851603,0.022235109574235634,0.02647501141271998,0.9830976734851603,0.9853477681321462,0.01907475998825462,0.02460044867969827,0.9853477681321462,0.9639012129045172,0.04435035736910412,0.029800388299600543,0.9639012129045172,-0.0,-0.0,1.0,0.0
0.9826964222182037,0.022556819787639893,0.03061485323071705,0.9826964222182037,NORMAL,0.9917122191228387,0.011289741992078738,0.012945067959655636,0.9917122191228387,0.9542650579766229,0.06551705336973718,0.09115026623404547,0.9542650579766229,0.9830976734851603,0.022235109574235634,0.024725515556249456,0.9830976734851603,0.9853477681321462,0.01907475998825426,0.024295841804511175,0.9853477681321462,0.9636771485814033,0.04461154276318194,0.02871790474825412,0.9636771485814033,-0.0,-0.0,1.0,0.0
0.9832489296982627,0.02180670843571212,0.030787141240325857,0.9832489296982627,NORMAL,0.9917122191228387,0.011289741992078738,0.01329248644380981,0.9917122191228387,0.9559904914988254,0.06367206875569788,0.08923112905141571,0.9559904914988254,0.9835207962952782,0.02173657497864538,0.024664836794793688,0.9835207962952782,0.9853477681321462,0.01907475998825426,0.024295841804511175,0.9853477681321462,0.9628654263283579,0.04585888059644613,0.031160145302636787,0.9628654263283579,-0.0,-0.0,1.0,0.0
0.9834468635610466,0.021580685683378648,0.03073047248317067,0.9834468635610466,NORMAL,0.9919670513095153,0.010951550733076774,0.012088424620639871,0.9919670513095153,0.961348852539845,0.05336809653386419,0.06366994837856875,0.961348852539845,0.9842857557811047,0.020880694632147978,0.02394265576373768,0.9842857557811047,0.986660913293027,0.01746204901405679,0.021552383022323977,0.986660913293027,0.9628654263283579,0.04585888059644613,0.030681378463274008,0.9628654263283579,-0.0,-0.0,1.0,0.0
0.9843558172415541,0.020584012197252647,0.028496561531634726,0.9843558172415541,NORMAL,0.9924446819191758,0.010336727683631721,0.011644318660676495,0.9924446819191758,0.9627600575801323,0.05107391545866125,0.06153058518554618,0.9627600575801323,0.984766100201047,0.020273844634564966,0.02215255654110556,0.984766100201047,0.986660913293027,0.01746204901405679,0.021552383022323977,0.986660913293027,0.9655316627773243,0.042609840015580484,0.027233710386074098,0.9655316627773243,-0.0,-0.0,1.0,0.0
0.9843558172415541,0.020584012197252647,0.028496561531634726,0.9843558172415541,NORMAL,0.992246748056392,0.010567140424133791,0.012592423921615256,0.992246748056392,0.9638058948029439,0.05000858702944804,0.060512966876891935,0.9638058948029439,0.984163895277611,0.02096580863734181,0.022329694638871293,0.984163895277611,0.9868588471558104,0.017234340103478397,0.022403704192922595,0.9868588471558104,0.9649294578538882,0.0432738600091379,0.027229603250610353,0.9649294578538882,-0.0,-0.0,1.0,0.0
0.9843558172415541,0.020584012197252647,0.028496561531634726,0.9843558172415541,NORMAL,0.9912735082905657,0.011836551598553161,0.013421123604028067,0.9912735082905657,0.9645580885593203,0.04931185666622592,0.0608257655974193,0.9645580885593203,0.9834844923706648,0.02179858282326104,0.02400835162515605,0.9834844923706648,0.9870567810185942,0.017006538444725425,0.021612801957301944,0.9870567810185942,0.9641497468036692,0.04426077081145166,0.029445980218454595,0.9641497468036692,-0.0,-0.0,1.0,0.0
0.9841009850548774,0.020917070872983556,0.02946504181426139,0.9841009850548774,NORMAL,0.9910755744277823,0.012066388028775441,0.013874914098376918,0.9910755744277823,0.9658712337202009,0.047775374890414876,0.059002325535625996,0.9658712337202009,0.9850023326592205,0.019805516655194345,0.020854286717091712,0.9850023326592205,0.9855475160989001,0.019002344476838434,0.02338782847468221,0.9855475160989001,0.9641497468036692,0.04426077081145166,0.029445980218454595,0.9641497468036692,-0.0,-0.0,1.0,0.0
0.9841009850548774,0.020917070872983556,0.029580286522589688,0.9841009850548774,NORMAL,0.9908527760047986,0.012342067859664638,0.01397372424802792,0.9908527760047986,0.9650481949203731,0.04858577642978862,0.05899197671662389,0.9650481949203731,0.9838912437758988,0.02152245902544575,0.019687418756923543,0.9838912437758988,0.9852498408055177,0.019422168346362,0.023194238390406276,0.9852498408055177,0.9648091020719609,0.04332911113420115,0.028032178442910123,0.9648091020719609,-0.0,-0.0,1.0,0.0
0.9832473502324676,0.021938914513273067,0.03065811950650905,0.9832473502324676,NORMAL,0.991150451298181,0.011917663680173054,0.014205981041944106,0.991150451298181,0.9640980673012128,0.04949922938318808,0.060136461439402114,0.9640980673012128,0.9834108993559563,0.02212814247299871,0.019605445776732493,0.9834108993559563,0.9847120015476797,0.020005865856708556,0.022739322620151013,0.9847120015476797,0.9654113069953968,0.04266521513384975,0.026268980586571844,0.9654113069953968,-0.0,-0.0,1.0,0.0
0.9824867125516461,0.022790941366639235,0.0312739041290703,0.9824867125516461,NORMAL,0.9916280819078412,0.011303820765874656,0.014529595145149806,0.9916280819078412,0.9645103556625348,0.04914080634640387,0.06018371924998492,0.9645103556625348,0.9838340221660745,0.02162939698745998,0.018804176394621383,0.9838340221660745,0.9843540467437776,0.020551620470202092,0.022587029216882354,0.9843540467437776,0.9662197817412949,0.041966136265307714,0.02791692780167593,0.9662197817412949,-0.0,-0.0,1.0,0.0
0.9838463562833208,0.020750982776451897,0.028127802183532623,0.9838463562833208,NORMAL,0.9913732497211645,0.011641803979393945,0.015290864773613176,0.9913732497211645,0.9645103556625348,0.04914080634640387,0.06071548722282748,0.9645103556625348,0.9840580864891885,0.02135708622838817,0.01839863741709132,0.9840580864891885,0.9841561128809942,0.020778066694540645,0.023166139589394785,0.9841561128809942,0.9657232202620168,0.04237032327556415,0.028533312431196372,0.9657232202620168,-0.0,-0.0,1.0,0.0
0.9835486809899385,0.021169532859493953,0.02935119346531453,0.9835486809899385,NORMAL,0.9911184175344878,0.011979611942546896,0.015913594076125866,0.9911184175344878,0.9648683104664368,0.048616964205469834,0.059867677102517045,0.9648683104664368,0.9840580864891885,0.02135708622838817,0.01962700193192528,0.9840580864891885,0.9838162074859397,0.021134150577361913,0.024609525700873523,0.9838162074859397,0.9649435092117981,0.04335883361038719,0.03004327528179804,0.9649435092117981,-0.0,-0.0,1.0,0.0
0.9843239868929808,0.02014603455657911,0.027627038976447558,0.9843239868929808,NORMAL,0.9911184175344878,0.011979611942546896,0.015913594076125866,0.9911184175344878,0.9677622162307838,0.04374777884014104,0.05350451484285875,0.9677622162307838,0.9850368560264114,0.020102937335766322,0.018674572607269478,0.9850368560264114,0.9847266697699006,0.019836532591281947,0.025091306915241408,0.9847266697699006,0.9658019942320623,0.04237312458113273,0.02811065701068384,0.9658019942320623,-0.0,-0.0,1.0,0.0
0.9841756708932952,0.020288939832040075,0.027945479522569212,0.9841756708932952,NORMAL,0.9911184175344878,0.011979611942546896,0.015913594076125866,0.9911184175344878,0.9683147237108428,0.043021547170206946,0.05117578441152002,0.9683147237108428,0.9846137332162935,0.02060297127706209,0.020093141850691266,0.9846137332162935,0.9845038713469172,0.02010865310253113,0.02449766320753122,0.9845038713469172,0.9659647487944525,0.042215061093553816,0.03062976430261671,0.9659647487944525,-0.0,-0.0,1.0,0.0
0.9832024311274689,0.02153823213270766,0.02855969381485713,0.9832024311274689,NORMAL,0.9906407869248277,0.012592807939107107,0.017044473664513435,0.9906407869248277,0.9699130684137133,0.041212201135937,0.04801595659542592,0.9699130684137133,0.9838340221660743,0.021629396987459613,0.021690222175741895,0.9838340221660743,0.9845038713469172,0.02010865310253077,0.02410182716958207,0.9845038713469172,0.9650510468775226,0.042989396054201476,0.030405839559637885,0.9650510468775226,-0.0,-0.0,1.0,0.0
0.9812461316206961,0.023948988601342123,0.030612906275399546,0.9812461316206961,NORMAL,0.9902200546390606,0.01309767379221621,0.01746418725541538,0.9902200546390606,0.9687798077067687,0.042732084672243306,0.05003456455011157,0.9687798077067687,0.9836349636790703,0.02185606667515086,0.022095660536090175,0.9836349636790703,0.9842490391602404,0.020441886532195398,0.024684963117319644,0.9842490391602404,0.9631794849271638,0.04481295191669819,0.029799045244602876,0.9631794849271638,-0.0,-0.0,1.0,0.0
0.9806473289849632,0.0246344114364776,0.030876017395561808,0.9806473289849632,NORMAL,0.9906976852487206,0.012484986777024462,0.01618074593556302,0.9906976852487206,0.9689777415695524,0.042513792782890594,0.05098969504359993,0.9689777415695524,0.9819543688281243,0.02400710026587602,0.024696214833881798,0.9819543688281243,0.9825779391954578,0.022590561064303523,0.026677811984520388,0.9825779391954578,0.9616941276201003,0.046111429643022735,0.030288290393857633,0.9616941276201003,-0.0,-0.0,1.0,0.0
0.9795140682780188,0.026191353906111322,0.03289930263738855,0.9795140682780188,NORMAL,0.9900420551514366,0.013460580264778059,0.016775762090242653,0.9900420551514366,0.9689777415695524,0.042513792782890594,0.05098969504359993,0.9689777415695524,0.9809755992909013,0.025253303857454522,0.026099314745291917,0.9809755992909013,0.9818917839379337,0.02331298558496728,0.028614874442654595,0.9818917839379337,0.9609291681342739,0.046926827047323684,0.029751035482224297,0.9609291681342739,-0.0,-0.0,1.0,0.0
0.9795140682780188,0.026191353906111322,0.03289930263738855,0.9795140682780188,NORMAL,0.9907176196238803,0.012618632067300047,0.014781805717676146,0.9907176196238803,0.9676180978378778,0.04449146831760647,0.054758526269255106,0.9676180978378778,0.9815164944536134,0.02467341789479968,0.026162230635992156,0.9815164944536134,0.9810846476863179,0.024598390934279717,0.03073679875059096,0.9810846476863179,0.9595099448835303,0.049231017057285595,0.03302249085967743,0.9595099448835303,-0.0,-0.0,1.0,0.0
0.9802893741810612,0.025176162797430266,0.030289229718992748,0.9802893741810612,NORMAL,0.9902399890142201,0.013231267227783504,0.015030927610706502,0.9902399890142201,0.9676180978378778,0.04449146831760647,0.054758526269255106,0.9676180978378778,0.9819396172637316,0.0241767667139531,0.024396258959780943,0.9819396172637316,0.9806070170766578,0.025199115300982972,0.03327922552305733,0.9806070170766578,0.9600655916106352,0.0485124543262286,0.03398466202951344,0.9600655916106352,-0.0,-0.0,1.0,0.0
0.982245673687834,0.02277029429833764,0.02690626482753075,0.982245673687834,NORMAL,0.9894646831111775,0.014266525974440872,0.01654547724908527,0.9894646831111775,0.9671298764431373,0.04496953183513812,0.055705082438042584,0.9671298764431373,0.9807817656131907,0.025613392403741893,0.02572517753640162,0.9807817656131907,0.9794432312094733,0.026517540769599165,0.034226676392200756,0.9794432312094733,0.9597056029726201,0.04903527361374674,0.03447394953600415,0.9597056029726201,-0.0,-0.0,1.0,0.0
0.9830993085102437,0.0217502520847219,0.026557898127602998,0.9830993085102437,NORMAL,0.989088678898428,0.014689271334405125,0.01854199145887816,0.989088678898428,0.9671298764431373,0.04496953183513812,0.05624322151255783,0.9671298764431373,0.9807817656131907,0.025613392403741893,0.026413664738304667,0.9807817656131907,0.9794432312094733,0.026517540769599165,0.034226676392200756,0.9794432312094733,0.9591499562455154,0.04975324298901709,0.03329926865716911,0.9591499562455154,-0.0,-0.0,1.0,0.0
0.9833221069332271,0.021478904737773353,0.02678000205513946,0.9833221069332271,NORMAL,0.9885361714183689,0.015447961265189875,0.019035976432079195,0.9885361714183689,0.9676075070527976,0.04438716314928634,0.05415460981694256,0.9676075070527976,0.9792639253246348,0.02758865497389385,0.029198201880569284,0.9792639253246348,0.9778448865066028,0.02837000372912876,0.038245870562297,0.9778448865066028,0.9608685461265355,0.04704919742160584,0.030733523197340015,0.9608685461265355,-0.0,-0.0,1.0,0.0
0.9849932068980097,0.019326658321313993,0.023865542722819835,0.9849932068980097,NORMAL,0.9888338467117512,0.015025501665749518,0.01786481360791252,0.9888338467117512,0.9704801732536515,0.04037221745492033,0.0488808177133697,0.9704801732536515,0.9798195720517398,0.02684186549358711,0.02655008620116504,0.9798195720517398,0.9773566651118624,0.028861643799991902,0.03944230793854971,0.9773566651118624,0.9611248262233636,0.04673029529973597,0.03034312218200857,0.9611248262233636,-0.0,-0.0,1.0,0.0
0.9836800617371291,0.02093407528432786,0.025517981653282392,0.9836800617371291,NORMAL,0.988493941316697,0.015385324091050428,0.019083864811074925,0.988493941316697,0.9717808426631398,0.03896209084427909,0.04656299973837514,0.9717808426631398,0.9782281387484755,0.029140484223490425,0.028859745041697218,0.9782281387484755,0.9765813592088197,0.029870752441646293,0.0426516539419408,0.9765813592088197,0.9617270311467997,0.046071270845255224,0.029906313550632616,0.9617270311467997,-0.0,-0.0,1.0,0.0
0.9842325692171883,0.02018227670069729,0.024210087465984135,0.9842325692171883,NORMAL,0.988493941316697,0.015385324091050428,0.018574165841366452,0.988493941316697,0.9720036410861231,0.03869792709940882,0.04563372077373103,0.9720036410861231,0.9778863020727673,0.029492219602248803,0.029995875016635934,0.9778863020727673,0.9762836839154373,0.03028333798530956,0.042973105533098944,0.9762836839154373,0.9630133299668594,0.044989631233067574,0.030458981653800628,0.9630133299668594,-0.0,-0.0,1.0,0.0
0.9851415228976959,0.019183484381653803,0.02344614423006471,0.9851415228976959,NORMAL,0.9877186354136543,0.016417029908526965,0.019276324094792834,0.9877186354136543,0.9712283351830807,0.039693407056298646,0.04749007567543012,0.9712283351830807,0.9782644426730891,0.02907908887143483,0.0287753867799653,0.9782644426730891,0.9775843533249257,0.02885070419594304,0.040828982994092454,0.9775843533249257,0.9630133299668594,0.044989631233067574,0.030458981653800628,0.9630133299668594,-0.0,-0.0,1.0,0.0
0.9853394567604794,0.018956482722534095,0.023388640772775977,0.9853394567604794,NORMAL,0.9877186354136543,0.016417029908526965,0.018910848866858163,0.9877186354136543,0.9714511336060642,0.03942957138982177,0.04559453097914201,0.9714511336060642,0.9778863020727673,0.029492219602248803,0.030297837900759576,0.9778863020727673,0.9766111135590996,0.030082827836411582,0.04231801381624491,0.9766111135590996,0.962068867822508,0.045731582145472384,0.03178645077170961,0.962068867822508,-0.0,-0.0,1.0,0.0
0.9853394567604794,0.018956482722533374,0.023695557301916716,0.9853394567604794,NORMAL,0.9871661279335954,0.01717367912405476,0.019884848571678895,0.9871661279335954,0.9725559451510621,0.03776110508991165,0.044965212289670486,0.9725559451510621,0.9776872435857633,0.029715865057206345,0.03210020158349703,0.9776872435857633,0.9759554834618153,0.031032489604449046,0.04567545103830573,0.9759554834618153,0.962428856460523,0.0452061492643042,0.03176163416165512,0.962428856460523,-0.0,-0.0,1.0,0.0
0.9851415228976959,0.019183484381653803,0.02344614423006471,0.9851415228976959,NORMAL,0.9879414338366378,0.016143158643319267,0.019594248382596678,0.9879414338366378,0.9734664074350231,0.036494340738510406,0.04288621507675536,0.9734664074350231,0.9775081614724452,0.02990502213148073,0.03252518860024703,0.9775081614724452,0.9762531587551975,0.030620277425050472,0.04450693449349628,0.9762531587551975,0.9621725763636947,0.04552592383048545,0.0322397013871218,0.9621725763636947,-0.0,-0.0,1.0,0.0
0.9853394567604794,0.018956482722534095,0.023388640772775977,0.9853394567604794,NORMAL,0.9855569890305241,0.019805292662191037,0.025194376735746975,0.9855569890305241,0.9750488495896815,0.034226737627356923,0.04073616351053322,0.9750488495896815,0.976743201986619,0.030747718043887047,0.0353082786419746,0.976743201986619,0.9769287232276413,0.029802179568659184,0.043840963764446815,0.9769287232276413,0.961513221095403,0.04645336828733918,0.033471034197222055,0.961513221095403,-0.0,-0.0,1.0,0.0
0.9842061960535349,0.02052768559740893,0.025718842543743455,0.9842061960535349,NORMAL,0.9849581863947913,0.02049637435769617,0.027281190990533687,0.9849581863947913,0.9752716480126649,0.033960543728877586,0.038964781240376126,0.9752716480126649,0.976320079176501,0.031238782718107087,0.036998088718529415,0.976320079176501,0.9780619839345859,0.02825369049360692,0.03921575595326867,0.9780619839345859,0.9645900117057307,0.04292075170170538,0.030735450712404893,0.9645900117057307,-0.0,-0.0,1.0,0.0
0.9840082621907513,0.020754101374433426,0.025469429471891448,0.9840082621907513,NORMAL,0.9843593837590584,0.021186601139575215,0.028285213160292293,0.9843593837590584,0.9759578032701891,0.03325069802563938,0.03767844037800983,0.9759578032701891,0.9760637990796726,0.03156718542617596,0.035864411554559134,0.9760637990796726,0.9792257698017703,0.026939276816459752,0.03719142910482968,0.9792257698017703,0.9662052935592613,0.04141291137863238,0.030945215567061653,0.9662052935592613,-0.0,-0.0,1.0,0.0
0.9843662169946531,0.020208617311759876,0.024652171059491614,0.9843662169946531,NORMAL,0.9843593837590584,0.021186601139575215,0.027625560830476372,0.9843593837590584,0.9774192644307558,0.03153276311838934,0.03553232293877279,0.9774192644307558,0.9777443939306187,0.02944254449674986,0.0330841347785525,0.9777443939306187,0.9801347234822779,0.025952022799738683,0.03554904391991295,0.9801347234822779,0.9671189954761913,0.040636063075142795,0.032530808905384734,0.9671189954761913,-0.0,-0.0,1.0,0.0
0.9827837748399951,0.022521517018951484,0.025786551685865185,0.9827837748399951,NORMAL,0.9847353879718077,0.020768411714559818,0.02693944509590414,0.9847353879718077,0.9769985321449887,0.0320225914476173,0.035652341148166816,0.9769985321449887,0.9784237968375651,0.028620115211420275,0.032374931133204915,0.9784237968375651,0.9783153075178093,0.028222829762395124,0.038665643891395395,0.9783153075178093,0.9678987065264103,0.03964297303283475,0.0318160654833388,0.9678987065264103,-0.0,-0.0,1.0,0.0
0.9830814501333773,0.022103711814237082,0.02550697969851079,0.9830814501333773,NORMAL,0.9851561202575749,0.020269680203991485,0.02594297165189655,0.9851561202575749,0.9767757337220051,0.03228972618654088,0.0349033297439902,0.9767757337220051,0.9772840971493312,0.03017349565150144,0.03484011944352777,0.9772840971493312,0.9780925090948259,0.02849120964036252,0.03948521331882759,0.9780925090948259,0.966307273223146,0.04189146438064366,0.0342302215566926,0.966307273223146,-0.0,-0.0,1.0,0.0
0.9842327602491694,0.020663444034950358,0.02370895557932525,0.9842327602491694,NORMAL,0.9837964765259002,0.022313098902069797,0.027889275016405177,0.9837964765259002,0.9765209015353283,0.0326170831456702,0.03515028406334647,0.9765209015353283,0.9763053276121082,0.03140736221718779,0.03859401724857095,0.9763053276121082,0.9776717768090587,0.02898270254620227,0.04072789079764558,0.9776717768090587,0.9649866670102148,0.04344078840451578,0.035404048672313206,0.9649866670102148,-0.0,-0.0,1.0,0.0
0.9844555586721527,0.02039152653594463,0.02432030975568104,0.9844555586721527,NORMAL,0.9826632158189555,0.02387790358986341,0.02854915886842242,0.9826632158189555,0.9757455956322859,0.033622307378101075,0.036195737364789086,0.9757455956322859,0.9757644324493963,0.03198029212910718,0.040213795751986706,0.9757644324493963,0.9760734321061882,0.030827622634490726,0.04334493799337846,0.9760734321061882,0.962915113442744,0.045598440812043416,0.036451892630821534,0.962915113442744,-0.0,-0.0,1.0,0.0
0.9844555586721528,0.02039152653594463,0.023903415307480982,0.9844555586721528,NORMAL,0.9824652819561721,0.024103276557663686,0.028492081172211126,0.9824652819561721,0.9774166955970685,0.031507977389054004,0.03425638524827597,0.9774166955970685,0.975764432449396,0.03198029212910716,0.03941603032792612,0.975764432449396,0.9758185999195115,0.031155113767189452,0.04351656890191414,0.9758185999195115,0.9633297443515735,0.045238166630391895,0.03519843842749411,0.9633297443515735,-0.0,-0.0,1.0,0.0
0.9836484224205372,0.021682786146754222,0.02660839934320998,0.9836484224205372,NORMAL,0.9814920421903458,0.025346547225793055,0.029064822662305114,0.9814920421903458,0.9774166955970685,0.031507977389054004,0.03425638524827597,0.9774166955970685,0.9765293919352225,0.0311394545546375,0.03742538442428624,0.9765293919352225,0.9749081376355503,0.0324300883284782,0.04711869570935602,0.9749081376355503,0.9646378039281611,0.04384243489484918,0.03396884721010212,0.9646378039281611,-0.0,-0.0,1.0,0.0
0.9852308645751954,0.019366441799197102,0.02273225248331431,0.9852308645751954,NORMAL,0.981789717483728,0.024930165741977185,0.028773392726845516,0.981789717483728,0.9779692030771274,0.030767090346080946,0.0342047177482818,0.9779692030771274,0.9754183030519005,0.03282832927989607,0.040245304832567316,0.9754183030519005,0.9752058129289327,0.03201876544056541,0.04548154381202371,0.9752058129289327,0.965553439293281,0.0425884014930646,0.031049473926743693,0.965553439293281,-0.0,-0.0,1.0,0.0
0.9847532339655352,0.019972343588940563,0.02372516274432163,0.9847532339655352,NORMAL,0.9829410275995203,0.023495170722153288,0.026911022145989394,0.9829410275995203,0.981623746522296,0.024926995195527164,0.026250964491107105,0.981623746522296,0.9740795448766626,0.03459358915779792,0.043437387257210774,0.9740795448766626,0.9755457183239872,0.03166971909692001,0.04345179950745033,0.9755457183239872,0.9644137396050471,0.04410395365885556,0.0313532505098791,0.9644137396050471,-0.0,-0.0,1.0,0.0
0.9838442802850276,0.020969999775008328,0.02481363140003318,0.9838442802850276,NORMAL,0.983195859786197,0.023163185679644795,0.02741863143425475,0.983195859786197,0.9825969862881221,0.023683135150735644,0.02575697951790607,0.9825969862881221,0.9739167903142723,0.0347543731702787,0.043086916061903735,0.9739167903142723,0.9752817459623511,0.03190035775366023,0.04353396308172514,0.9752817459623511,0.9646378039281612,0.04384243489484884,0.030010719016977255,0.9646378039281612,-0.0,-0.0,1.0,0.0
0.9829906454626177,0.021991521238828346,0.026851655442468817,0.9829906454626177,NORMAL,0.9841063220701581,0.02186828874857019,0.026366159164864997,0.9841063220701581,0.9837017978331201,0.021976820071862465,0.024265692195127718,0.9837017978331201,0.9732267364473304,0.03546317228324967,0.04358570633397062,0.9732267364473304,0.9744746097107356,0.03316973686279565,0.044496111988980395,0.9744746097107356,0.9663183987791073,0.04176528762496258,0.025628402558223,0.9663183987791073,-0.0,-0.0,1.0,0.0
0.9822153395595753,0.023012133432600213,0.028538821898927095,0.9822153395595753,NORMAL,0.9843291204931415,0.02159668014777953,0.02581329678656753,0.9843291204931415,0.9834041225397379,0.022394935845236004,0.025175799196464087,0.9834041225397379,0.9732267364473304,0.03546317228324967,0.044343282612196916,0.9732267364473304,0.9764330560781431,0.03048348059939799,0.039935678100353644,0.9764330560781431,0.9669201874294174,0.04128451354283364,0.024966849197384965,0.9669201874294174,-0.0,-0.0,1.0,0.0
0.981242099793749,0.024256156510798006,0.029726635583870415,0.981242099793749,NORMAL,0.9860380008268111,0.018778384023559275,0.0229250334426486,0.9860380008268111,0.9824308827739116,0.023641132074580958,0.02531107605009528,0.9824308827739116,0.9726245315238945,0.03613733189123933,0.04573834199428878,0.9726245315238945,0.9777642506478714,0.028713379854919948,0.035682075542013844,0.9777642506478714,0.9677286621753155,0.04058307696587324,0.024847491420687033,0.9677286621753155,-0.0,-0.0,1.0,0.0
0.981242099793749,0.024256156510798006,0.029726635583870415,0.981242099793749,NORMAL,0.9865156314364714,0.018171088521375944,0.02106096089958707,0.9865156314364714,0.9816555768708691,0.024659841030624404,0.026597371834888545,0.9816555768708691,0.971945128616948,0.036949395791215346,0.045861433316173456,0.971945128616948,0.978571386899487,0.027435855320424866,0.035315633763686134,0.978571386899487,0.9695584157304913,0.03835497627293443,0.02472934370096793,0.9695584157304913,-0.0,-0.0,1.0,0.0
0.9806432971580161,0.024941388958647184,0.02953429003915392,0.9806432971580161,NORMAL,0.9862928330134878,0.01844409593262534,0.02249499974118295,0.9862928330134878,0.9811030693908099,0.025407090552669313,0.028766622993480054,0.9811030693908099,0.9693680537156637,0.04069739239975672,0.05188959179128465,0.9693680537156637,0.978571386899487,0.027435855320424505,0.03661232452460971,0.978571386899487,0.9700101493455217,0.03762521573007725,0.02559144619359819,0.9700101493455217,-0.0,-0.0,1.0,0.0
0.9806432971580161,0.024941388958647184,0.02953429003915392,0.9806432971580161,NORMAL,0.9851415228976959,0.019890073636778905,0.024487935186372954,0.9851415228976959,0.9804169141332859,0.026126412730966102,0.02963422440258514,0.9804169141332859,0.9679488304649202,0.04303218100247651,0.0518952227133556,0.9679488304649202,0.9774381261925424,0.028986133056406495,0.04014371107705933,0.9774381261925424,0.9691984270924762,0.03888709638180833,0.027576166762902386,0.9691984270924762,-0.0,-0.0,1.0,0.0
0.9806432971580161,0.024941388958647184,0.02953429003915392,0.9806432971580161,NORMAL,0.9845427202619628,0.02058080214312394,0.024776126870637176,0.9845427202619628,0.9801941157103023,0.026395873267025374,0.03014237468846001,0.9801941157103023,0.9662682356139739,0.04511088455566699,0.055264298107102844,0.9662682356139739,0.9764648864267161,0.03021792876736939,0.04066733144302849,0.9764648864267161,0.9691984270924762,0.03888709638180762,0.02609579685231913,0.9691984270924762,-0.0,-0.0,1.0,0.0
0.9811209277676763,0.024340515941653984,0.02735147391889573,0.9811209277676763,NORMAL,0.9837820825811411,0.021435046317132507,0.025864745774561403,0.9837820825811411,0.9797164851006419,0.02699515445411854,0.03016868486827336,0.9797164851006419,0.9665245157108024,0.044789536093794796,0.05434718296219563,0.9665245157108024,0.9756895805236737,0.031224997231060845,0.04305527616297923,0.9756895805236737,0.9705657960726263,0.03689152558594968,0.02301829158294353,0.9705657960726263,-0.0,-0.0,1.0,0.0
0.9801054579001778,0.025519229445694885,0.028271182657935726,0.9801054579001778,NORMAL,0.9809094163802872,0.02556374198420088,0.03285596356093697,0.9809094163802872,0.9822790002567213,0.023181895789720307,0.025090539949419267,0.9822790002567213,0.9665245157108024,0.044789536093794796,0.05434718296219563,0.9665245157108024,0.9756895805236737,0.031224997231060845,0.04305527616297923,0.9756895805236737,0.9687753042823581,0.03937060619350207,0.025580653843790338,0.9687753042823581,-0.0,-0.0,1.0,0.0
0.9798826594771944,0.025788738612972116,0.027887555511920434,0.9798826594771944,NORMAL,0.9814472556381253,0.024985429215712805,0.032287806129940554,0.9814472556381253,0.9816233701594371,0.02414191264359192,0.02561183110673446,0.9816233701594371,0.9665245157108024,0.044789536093794796,0.05274088526204913,0.9665245157108024,0.9756895805236737,0.031224997231060845,0.04305527616297923,0.9756895805236737,0.9669455507271824,0.04159486851345907,0.02470612881389808,0.9669455507271824,-0.0,-0.0,1.0,0.0
0.9812138540469226,0.024005722011978085,0.024996713099184886,0.9812138540469226,NORMAL,0.9826110415053098,0.02366236385223015,0.02988261207504906,0.9826110415053098,0.9809677400621529,0.025100626430540268,0.026421262290708316,0.9809677400621529,0.9665245157108024,0.044789536093794796,0.05274088526204913,0.9665245157108024,0.9763651449961176,0.030407814494500057,0.04159687445444702,0.9763651449961176,0.9661338284741369,0.04284922735545239,0.02732989048078594,0.9661338284741369,-0.0,-0.0,1.0,0.0
0.9806613465668637,0.024752990927207924,0.0269273544971115,0.9806613465668637,NORMAL,0.982413107642526,0.023887767758287465,0.030520371347146115,0.982413107642526,0.9790092936947452,0.027810696810785473,0.02854390506043509,0.9790092936947452,0.9661826790350941,0.04513128192789169,0.053135525979297986,0.9661826790350941,0.9774984057030621,0.02886096052119731,0.03760584859343576,0.9774984057030621,0.9661338284741369,0.04284922735545239,0.02732989048078594,0.9661338284741369,-0.0,-0.0,1.0,0.0
0.9806613465668637,0.024752990927207924,0.02709715975499423,0.9806613465668637,NORMAL,0.9810999624816454,0.02548473675274732,0.03296243542540708,0.9810999624816454,0.9793672484986472,0.02727063990496062,0.027389773138910757,0.9793672484986472,0.9652685608450382,0.0460879523698187,0.05519278753280219,0.9652685608450382,0.9777960809964444,0.028447405669645407,0.03915104805145856,0.9777960809964444,0.9661338284741369,0.04284922735545239,0.02732989048078594,0.9661338284741369,-0.0,-0.0,1.0,0.0
0.9809590218602459,0.02433679458988206,0.02704202901073119,0.9809590218602459,NORMAL,0.9799361766144609,0.02680351704578455,0.03547952226848878,0.9799361766144609,0.9809496906533054,0.024973693687507244,0.025498689695671053,0.9809496906533054,0.96347806905477,0.04853567321902271,0.05592131333042149,0.96347806905477,0.9775981471336607,0.028670689373970562,0.03992582839402294,0.9775981471336607,0.9648257688975492,0.04424865572193339,0.026205190646646892,0.9648257688975492,-0.0,-0.0,1.0,0.0
0.9821103319760378,0.022902365350651585,0.025885277509556246,0.9821103319760378,NORMAL,0.9803569089002281,0.02630989295377526,0.03512319589380887,0.9803569089002281,0.9824111518138723,0.023234145806049874,0.025114493487599608,0.9824111518138723,0.9627880151878281,0.049226468593677845,0.05614971448706132,0.9627880151878281,0.9772221429209114,0.02908269188461356,0.03969296926976559,0.9772221429209114,0.9648257688975492,0.04424865572193339,0.025696923707106703,0.9648257688975492,-0.0,-0.0,1.0,0.0
0.9830835717418641,0.02165585851586472,0.02437231699525917,0.9830835717418641,NORMAL,0.9803569089002281,0.02630989295377526,0.036390608571683955,0.9803569089002281,0.9824111518138723,0.023234145806049874,0.025114493487599608,0.9824111518138723,0.9632111379979462,0.04875049027798471,0.056362060202346,0.9632111379979462,0.975101861508415,0.03193514491121355,0.04257419953437826,0.975101861508415,0.9655051718044958,0.04344805548960879,0.02538554353079324,0.9655051718044958,-0.0,-0.0,1.0,0.0
0.9824279416445799,0.022617705309610225,0.02578812366364584,0.9824279416445799,NORMAL,0.9780155106159402,0.03055645734074638,0.045238014558485265,0.9780155106159402,0.9824111518138723,0.023234145806049874,0.025114493487599608,0.9824111518138723,0.9601844885403386,0.0528389396357666,0.06389967258876218,0.9601844885403386,0.9739380756412306,0.033237783505855246,0.04400490206188324,0.9739380756412306,0.9679243202644051,0.04038373752214382,0.022002871884189187,0.9679243202644051,-0.0,-0.0,1.0,0.0
0.980966480484013,0.02435820116500591,0.02860447931336506,0.980966480484013,NORMAL,0.9774630031358812,0.031297500123900326,0.044850334769317254,0.9774630031358812,0.9841915278313141,0.020696918747910957,0.022331296126254188,0.9841915278313141,0.9590266368897976,0.054207857998935426,0.06532228953372929,0.9590266368897976,0.971979629273823,0.03591131038778731,0.04812582406495168,0.971979629273823,0.9671446092141863,0.04137625883436098,0.021478226327820267,0.9671446092141863,-0.0,-0.0,1.0,0.0
0.9806688051906308,0.024774394284272257,0.029922321988223734,0.9806688051906308,NORMAL,0.9801020767135515,0.02664006647555946,0.03643891776993176,0.9801020767135515,0.9848670923037578,0.019865018519573386,0.021063138268410473,0.9848670923037578,0.9550645089993033,0.06006602796544122,0.07450383496317034,0.9550645089993033,0.971979629273823,0.035911310387786596,0.05024699791436313,0.971979629273823,0.9674439758444628,0.04096988285440926,0.020505916319213675,0.9674439758444628,-0.0,-0.0,1.0,0.0
0.9799932407181869,0.025599247419417076,0.030358203074355276,0.9799932407181869,NORMAL,0.9798472445268746,0.02697006474697731,0.03552395837552496,0.9798472445268746,0.9856423982068002,0.018839077706598695,0.02053693935343318,0.9856423982068002,0.9530697959536879,0.06362008967340252,0.07573928345870615,0.9530697959536879,0.9717568308508394,0.036176105918984076,0.05169065794367682,0.9717568308508394,0.9680461807678988,0.040302558879744585,0.020331942689946276,0.9680461807678988,-0.0,-0.0,1.0,0.0
0.979440733238128,0.026344654151199888,0.031171422243576313,0.979440733238128,NORMAL,0.9802232487396241,0.026556085181949067,0.03553794439931732,0.9802232487396241,0.9853875660201236,0.019173036877575805,0.020789676309546725,0.9853875660201236,0.9557238642675947,0.059154625934056675,0.06906767577398167,0.9557238642675947,0.9730880254205676,0.03442266778773726,0.04972110325204157,0.9730880254205676,0.9682452392549028,0.04008341520161207,0.019330156022207744,0.9682452392549028,-0.0,-0.0,1.0,0.0
0.9800963633354122,0.02538831672713141,0.029755615575189645,0.9800963633354122,NORMAL,0.9809838864204458,0.02570902277322273,0.03414379888837049,0.9809838864204458,0.9851896321573399,0.019400006495141717,0.020805469267761955,0.9851896321573399,0.9552721306525644,0.05986293735021783,0.07157656805582287,0.9552721306525644,0.9722808891689521,0.03568697819113537,0.05111628381135514,0.9722808891689521,0.9698003868205474,0.038471216498628,0.01919752657152566,0.9698003868205474,-0.0,-0.0,1.0,0.0
0.9797986880420299,0.025803814583580803,0.030467219775420506,0.9797986880420299,NORMAL,0.9824453475810124,0.023970507236303618,0.031427677979268084,0.9824453475810124,0.9840563714503954,0.0209704533689336,0.02335151433685372,0.9840563714503954,0.9552721306525644,0.05986293735021783,0.07104044946996763,0.9552721306525644,0.9722808891689521,0.035686978191135726,0.05459902022886541,0.9722808891689521,0.9702913822004853,0.037987393864524543,0.02002388122940643,0.9702913822004853,-0.0,-0.0,1.0,0.0
0.9778423885352573,0.02819739429043146,0.03455815796403855,0.9778423885352573,NORMAL,0.9831209120534563,0.023142383451836515,0.029798476445832757,0.9831209120534563,0.9838335730274119,0.021242125765476426,0.02380870487969082,0.9838335730274119,0.9549602173859445,0.06014862733349866,0.07170572705460053,0.9549602173859445,0.9692713394257939,0.03984419784716719,0.05945707053725061,0.9692713394257939,0.9709707851074316,0.03717752545873173,0.019227437795730412,0.9709707851074316,-0.0,-0.0,1.0,0.0
0.978004223580346,0.028035177839550417,0.03363557097851003,0.978004223580346,NORMAL,0.9853074229967862,0.01972454265984164,0.024088704694341264,0.9853074229967862,0.9843714122852499,0.02065964400137645,0.023818272956322845,0.9843714122852499,0.9529928025410652,0.06241442396838217,0.07392892393253477,0.9529928025410652,0.9680984133836503,0.041033257460991956,0.06013348463840522,0.9680984133836503,0.9683045486584653,0.04046116016625377,0.021643728307481163,0.9683045486584653,-0.0,-0.0,1.0,0.0
0.9788578584027559,0.027024303025328916,0.03260445099171905,0.9788578584027559,NORMAL,0.9857850536064465,0.019118169032676793,0.023912779933096494,0.9857850536064465,0.9840134574813479,0.021204967011216443,0.02527334123842125,0.9840134574813479,0.9525124581211227,0.06297979512864932,0.07612998677192401,0.9525124581211227,0.9667852682227697,0.04258273152538691,0.06325722492579015,0.9667852682227697,0.9665859587774451,0.04319916076120221,0.02362914595009988,0.9665859587774451,-0.0,-0.0,1.0,0.0
0.9798310981685819,0.02578616896202671,0.03090854228306143,0.9798310981685819,NORMAL,0.9857850536064465,0.019118169032677153,0.02519880984819003,0.9857850536064465,0.9844910880910083,0.020600133032513162,0.02509181845758993,0.9844910880910083,0.9549104509090892,0.059539845005488985,0.07000938842302541,0.9549104509090892,0.96726289883243,0.04199940689799335,0.061458279691519346,0.96726289883243,0.9657274737571809,0.04418499812099536,0.02431407576197228,0.9657274737571809,-0.0,-0.0,1.0,0.0
0.9798310981685819,0.02578616896202671,0.031565894756719004,0.9798310981685819,NORMAL,0.9850097477034038,0.02014404324005111,0.026157108939491656,0.9850097477034038,0.9849118203767754,0.020101457684564162,0.025624416117052764,0.9849118203767754,0.9573295993689988,0.05655223448781257,0.0655203812489906,0.9573295993689988,0.969987249033598,0.03811691983462749,0.05659644930916506,0.969987249033598,0.966867173445415,0.04266733771943764,0.02521102525749036,0.966867173445415,-0.0,-0.0,1.0,0.0
0.979278590688523,0.02653134211574219,0.033094054450404295,0.979278590688523,NORMAL,0.9847869492804203,0.02041617501983988,0.026318882647820382,0.9847869492804203,0.9849118203767754,0.020101457684564162,0.025624416117052764,0.9849118203767754,0.9584999976558831,0.05529846549066798,0.06241609405205337,0.9584999976558831,0.9713468927652726,0.03612516804557066,0.05124632997057519,0.9713468927652726,0.9655284152701769,0.044402683487176076,0.02702534522651446,0.9655284152701769,-0.0,-0.0,1.0,0.0
0.9783284630693627,0.02748107701183246,0.03431782318051375,0.9783284630693627,NORMAL,0.9853394567604794,0.019663213945017178,0.025161107443535582,0.9853394567604794,0.9855674504740596,0.0191354294657429,0.024003940687642285,0.9855674504740596,0.9593277128125284,0.054498182161282216,0.06168748315248358,0.9593277128125284,0.9721221986683153,0.03512671085214108,0.04929409286399397,0.9721221986683153,0.9666681149584109,0.04288561398088137,0.023915111119675602,0.9666681149584109,-0.0,-0.0,1.0,0.0
0.9769172580290753,0.029848846373055293,0.034782810685648834,0.9769172580290753,NORMAL,0.9860150212329233,0.018829602246638277,0.02349585207720243,0.9860150212329233,0.9855674504740596,0.0191354294657429,0.024003940687642285,0.9855674504740596,0.9604674125007624,0.053003512531519845,0.06065610285543287,0.9604674125007624,0.9714466341958714,0.03593687727088547,0.049999289709085355,0.9714466341958714,0.9676893545410654,0.04173913567482907,0.024831153258438658,0.9676893545410654,-0.0,-0.0,1.0,0.0
0.9742781844514052,0.034481969069790015,0.03838113529727972,0.9742781844514052,NORMAL,0.9866138238686564,0.01813674054769225,0.021560484366422526,0.9866138238686564,0.9867007111810043,0.017560389766688816,0.02225345088778167,0.9867007111810043,0.9600892719004404,0.05339929248945375,0.062213476749234525,0.9600892719004404,0.9714466341958714,0.03593687727088547,0.050761669274358295,0.9714466341958714,0.9679887211713419,0.04133262871303855,0.027167661150381325,0.9679887211713419,-0.0,-0.0,1.0,0.0
0.9740233522647285,0.03480787223737403,0.037935968279279544,0.9740233522647285,NORMAL,0.9879269690295369,0.01652064648086241,0.01945883794544286,0.9879269690295369,0.9878520212967963,0.0161093343584781,0.020378240384936196,0.9878520212967963,0.9615590368176011,0.051737276057456816,0.059335108381585636,0.9615590368176011,0.9721221986683153,0.03512671085214144,0.04984205739997269,0.9721221986683153,0.9676893545410654,0.04173913567482907,0.026593424820756925,0.9676893545410654,-0.0,-0.0,1.0,0.0
0.9736026199789614,0.0352944887954683,0.03839061279578222,0.9736026199789614,NORMAL,0.9879269690295369,0.01652064648086241,0.01931683694812053,0.9879269690295369,0.9887056561192059,0.015077494013459787,0.020309418701624313,0.9887056561192059,0.9621612417410371,0.05108106338911337,0.05777255581347923,0.9621612417410371,0.9734818423999901,0.033126164355835624,0.04653104546996565,0.9734818423999901,0.9692071948296214,0.03981039535390157,0.023635796520304026,0.9692071948296214,-0.0,-0.0,1.0,0.0
0.972946989881677,0.036237588897526846,0.040026589104221834,0.972946989881677,NORMAL,0.9876721368428603,0.016856000506168478,0.01891803727337009,0.9876721368428603,0.9887056561192059,0.015077494013459787,0.020309418701624313,0.9887056561192059,0.9619371774179231,0.05134017252050014,0.05914708534216674,0.9619371774179231,0.9760144121738082,0.029909943181457184,0.04211899905098259,0.9760144121738082,0.9672397799847422,0.042155024143647246,0.023929998560061356,0.9672397799847422,-0.0,-0.0,1.0,0.0
0.973499497361736,0.035502937029240435,0.037561394336578645,0.973499497361736,NORMAL,0.9869114991620386,0.0177159315826923,0.02017430992188688,0.9869114991620386,0.9880300916467623,0.015916016112376804,0.02157757655946803,0.9880300916467623,0.9619371774179231,0.05134017252050049,0.058153461110869456,0.9619371774179231,0.9773275573346889,0.028327549086758167,0.040378854975839616,0.9773275573346889,0.9665603770777959,0.042958081770633025,0.023491867854683393,0.9665603770777959,-0.0,-0.0,1.0,0.0
0.972946989881677,0.036237588897526846,0.03987913834314542,0.972946989881677,NORMAL,0.986713565299255,0.017943556426120513,0.02081880002726119,0.986713565299255,0.9880300916467623,0.01591601611237753,0.02157757655946803,0.9880300916467623,0.9629889568976822,0.0502737337535209,0.05507261443713936,0.9629889568976822,0.9788368222543828,0.026363251414543303,0.03833529481949187,0.9788368222543828,0.9678991352530337,0.04121875149898677,0.023693071145509344,0.9678991352530337,-0.0,-0.0,1.0,0.0
0.9731697883046606,0.03597246290960549,0.04051597289852693,0.9731697883046606,NORMAL,0.986713565299255,0.017943556426120874,0.021893685185091983,0.986713565299255,0.9880300916467623,0.01591601611237753,0.02226996276685139,0.9880300916467623,0.9645803902009467,0.04804727785448888,0.05438922475506804,0.9645803902009467,0.9791344975477652,0.025948346855705032,0.035626495837491695,0.9791344975477652,0.9678991352530337,0.04121875149898677,0.02291756868392947,0.9678991352530337,-0.0,-0.0,1.0,0.0
0.972946989881677,0.036237588897526846,0.04080989074523968,0.972946989881677,NORMAL,0.9869114991620386,0.0177159315826923,0.021292899485916183,0.9869114991620386,0.9882528900697456,0.015641943194905757,0.021165639106663043,0.9882528900697456,0.9652704440678885,0.047354222600850496,0.05435816045813771,0.9652704440678885,0.9788368222543828,0.026363251414543303,0.033973180520888886,0.9788368222543828,0.9684547819801388,0.04048881400023954,0.022027600032289856,0.9684547819801388,-0.0,-0.0,1.0,0.0
0.971615795311949,0.037988275692736495,0.04445879148398843,0.971615795311949,NORMAL,0.9873322314478057,0.017214757949046675,0.0211753512891363,0.9873322314478057,0.9864725140523037,0.01819907472333448,0.024474607876216668,0.9864725140523037,0.9656122807435966,0.0470136167001163,0.053231299942292025,0.9656122807435966,0.9799700829613274,0.024807625096389844,0.03210583246898383,0.9799700829613274,0.9687110620769669,0.0401654613499493,0.02158328503533269,0.9687110620769669,-0.0,-0.0,1.0,0.0
0.9716157953119487,0.03798827569273648,0.046113691744272635,0.9716157953119487,NORMAL,0.987809862057466,0.01660588544836805,0.020031302508775946,0.987809862057466,0.9856188792298941,0.01922582235837616,0.025702044134904633,0.9856188792298941,0.9678937679138029,0.044077821087333505,0.04768491699041949,0.9678937679138029,0.9806257130586118,0.02384972378468343,0.03106213528695511,0.9806257130586118,0.9689351264000811,0.03990177547453553,0.021216886239568952,0.9689351264000811,-0.0,-0.0,1.0,0.0
0.9719259463567237,0.037690431625542246,0.04546891534175945,0.9719259463567237,NORMAL,0.9885704997382876,0.015744292599380063,0.01781577786160595,0.9885704997382876,0.9853960808069107,0.01949833566031927,0.02669232434503281,0.9853960808069107,0.9685731708207493,0.043274359168289936,0.04653150914298774,0.9685731708207493,0.9814010189616543,0.022831483094853708,0.029487465634470255,0.9814010189616543,0.9693582492101991,0.03941841221503286,0.021016304927301124,0.9693582492101991,-0.0,-0.0,1.0,0.0
0.9699674999893159,0.04034917505989725,0.050561049963663715,0.9699674999893159,NORMAL,0.9895437395041138,0.01448225003821659,0.01542005700355825,0.9895437395041138,0.9842447706911186,0.020941726186799178,0.02787575921722481,0.9842447706911186,0.9685731708207493,0.043274359168289936,0.04653150914298774,0.9685731708207493,0.9829993636645248,0.020962937638026615,0.026946774676105595,0.9829993636645248,0.9726319866568636,0.035042674655194554,0.018699357504335885,0.9726319866568636,-0.0,-0.0,1.0,0.0
0.9705200074693751,0.0396192398766564,0.04954997763022055,0.9705200074693751,NORMAL,0.9900213701137738,0.01387065821796596,0.015302309018309585,0.9900213701137738,0.9850984055135282,0.019917943405220306,0.025729744389556344,0.9850984055135282,0.9679138155524576,0.04420992402347149,0.04686388736918839,0.9679138155524576,0.9820261238986987,0.022210019961365908,0.03031539009892139,0.9820261238986987,0.9743672237786244,0.03309873881510729,0.018706406802370883,0.9743672237786244,-0.0,-0.0,1.0,0.0
0.9714932472352009,0.03840473139945606,0.0478333210135144,0.9714932472352009,NORMAL,0.9896006378280067,0.014374658516572937,0.016825270197570023,0.9896006378280067,0.9852963393763118,0.019691099590200194,0.02548406454081262,0.9852963393763118,0.9674334711325152,0.0447941637431355,0.04627354109233602,0.9674334711325152,0.9820261238986985,0.022210019961365905,0.031211922928679532,0.9820261238986985,0.9767863722385335,0.029978682773142723,0.017746023218874484,0.9767863722385335,-0.0,-0.0,1.0,0.0
0.9751477906803696,0.032633420474343935,0.04324672704137552,0.9751477906803696,NORMAL,0.9891230072183466,0.014985741355456189,0.017411756617837667,0.9891230072183466,0.9850984055135282,0.019917943405219584,0.025294036776186822,0.9850984055135282,0.9671215578658953,0.04508884496765685,0.045406419898906474,0.9671215578658953,0.9820261238986985,0.022210019961365905,0.031211922928679532,0.9820261238986985,0.977956770525418,0.02866484185260125,0.018370688790446336,0.977956770525418,-0.0,-0.0,1.0,0.0
0.9747270583946025,0.0331215719180583,0.045293003963835676,0.9747270583946025,NORMAL,0.9907054493730048,0.012645424771492367,0.014166203035110538,0.9907054493730048,0.9835891405938342,0.021905219664423457,0.02857332767640069,0.9835891405938342,0.9661003182832407,0.04623106097494422,0.04626134103634084,0.9661003182832407,0.9820261238986985,0.022210019961365905,0.031211922928679532,0.9820261238986985,0.9794746108139739,0.026693996296266696,0.018708517430879583,0.9794746108139739,-0.0,-0.0,1.0,0.0
0.9758318699396004,0.03144003400880341,0.04092408948288591,0.9758318699396004,NORMAL,0.9909282477959883,0.012369854968076285,0.014526060020561293,0.9909282477959883,0.9850984055135285,0.019917943405219588,0.026307658588092125,0.9850984055135285,0.9666412134459529,0.04567213375975922,0.04434733069329683,0.9666412134459529,0.9820261238986987,0.02221001996136519,0.030038241016530083,0.9820261238986987,0.9806324624645147,0.025260641041728548,0.018731363100724326,0.9806324624645147,-0.0,-0.0,1.0,0.0
