AccX_entropy,AccX_complexity,AccX_fisher,AccX_shannon,Class,AccY_entropy,AccY_complexity,AccY_fisher,AccY_shannon,AccZ_entropy,AccZ_complexity,AccZ_fisher,AccZ_shannon,GyroX_entropy,GyroX_complexity,GyroX_fisher,GyroX_shannon,GyroY_entropy,GyroY_complexity,GyroY_fisher,GyroY_shannon,GyroZ_entropy,GyroZ_complexity,GyroZ_fisher,GyroZ_shannon,Timestamp_entropy,Timestamp_complexity,Timestamp_fisher,Timestamp_shannon
0.9823922827446225,0.023318261231050436,0.021495961351731232,0.9823922827446225,NORMAL,0.9887453528237512,0.015291390861209784,0.023938766619374167,0.9887453528237512,0.9793983143104044,0.028102100646320467,0.03378234754305201,0.9793983143104044,0.9905011657493736,0.012446953714061739,0.01714067556806237,0.9905011657493736,0.985387489195535,0.019521557415586428,0.028775156639479275,0.985387489195535,0.9616301214034345,0.047029124852848575,0.027004962174952876,0.9616301214034345,-0.0,-0.0,1.0,0.0
0.9831506716330073,0.022292851855666023,0.02120386580836774,0.9831506716330073,NORMAL,0.9889769846166839,0.015016589782660838,0.02347764187850342,0.9889769846166839,0.9793983143104044,0.028102100646320467,0.03337136276996673,0.9793983143104044,0.9896376831625296,0.013700746513398889,0.01869445967167821,0.9896376831625296,0.9865811896698308,0.01789545655073447,0.025569380412912106,0.9865811896698308,0.9617135067733121,0.046953066343008644,0.027014606792345654,0.9617135067733121,-0.0,-0.0,1.0,0.0
0.9832715357806051,0.022147935212597284,0.02179868772093793,0.9832715357806051,NORMAL,0.9894894296824298,0.014373031666642095,0.022154196031215996,0.9894894296824298,0.9788365493531105,0.028745739159774516,0.03404977736585883,0.9788365493531105,0.9887742005756855,0.01495233244906695,0.020921987657106105,0.9887742005756855,0.986729013693935,0.017697637578553867,0.025048510270432044,0.986729013693935,0.9624368213822039,0.04630207593815508,0.026868342225026,0.9624368213822039,-0.0,-0.0,1.0,0.0
0.9827670002885269,0.022861409314301574,0.024067904192007442,0.9827670002885269,NORMAL,0.9893786620370945,0.01450134479372673,0.021277818500836383,0.9893786620370945,0.9788365493531105,0.028745739159774516,0.0338619496968163,0.9788365493531105,0.9890834168466772,0.014609918152677894,0.021386316483953435,0.9890834168466772,0.9862165686281888,0.01833763121409494,0.026545931439342866,0.9862165686281888,0.962634800653431,0.04610044339971458,0.02703681089960077,0.962634800653431,-0.0,-0.0,1.0,0.0
0.9823653228681162,0.023369713807314122,0.02607490682361129,0.9823653228681162,NORMAL,0.9893786620370945,0.01450134479372673,0.02146679094407113,0.9893786620370945,0.9777093768181491,0.030415649641795682,0.03666473723027419,0.9777093768181491,0.9889620405628606,0.014756934517797006,0.02150277820644319,0.9889620405628606,0.9864704220244955,0.01802298755636755,0.02670262539884106,0.9864704220244955,0.9616964152171356,0.047064983293240235,0.027253267166027936,0.9616964152171356,-0.0,-0.0,1.0,0.0
0.9838255483777079,0.021485226505181677,0.023653284739484418,0.9838255483777079,NORMAL,0.9891248086407882,0.014817847187681294,0.020726518034099646,0.9891248086407882,0.977071852077362,0.03128604984255778,0.03896622386768362,0.977071852077362,0.9885586611194822,0.015272931090616289,0.022418567295904003,0.9885586611194822,0.9863374327757869,0.01819176092200112,0.02714651291924847,0.9863374327757869,0.9618867329261723,0.046792680516091804,0.02614767612349675,0.9618867329261723,-0.0,-0.0,1.0,0.0
0.9844630731184947,0.020602181728228003,0.02321810713507903,0.9844630731184947,NORMAL,0.9892577978894969,0.014648129464819833,0.01996712724288551,0.9892577978894969,0.9761072922692962,0.0324373432747923,0.04071533722875193,0.9761072922692962,0.9875831590623659,0.016552942323451537,0.024810384592411826,0.9875831590623659,0.9864323472104779,0.018091833255542183,0.027135132025734792,0.9864323472104779,0.9604265074165808,0.0485952238789454,0.02673113519305343,0.9604265074165808,-0.0,-0.0,1.0,0.0
0.9844630731184947,0.020602181728228003,0.02321810713507903,0.9844630731184947,NORMAL,0.9890448007632004,0.01488946877144508,0.02036911929486141,0.9890448007632004,0.977395907178283,0.03074502906359707,0.03822223727042817,0.977395907178283,0.9873282300160752,0.016868968557930897,0.025338100565891773,0.9873282300160752,0.9857948224696907,0.018978321340706573,0.02887067717388537,0.9857948224696907,0.961397893431262,0.047386390201759866,0.024972782279472402,0.961397893431262,-0.0,-0.0,1.0,0.0
0.9854437764664944,0.019218460895066795,0.020439839045735708,0.9854437764664944,NORMAL,0.9889340331178653,0.015017664949780244,0.019784114734829827,0.9889340331178653,0.9781769754839269,0.029776045866888888,0.03717991596664194,0.9781769754839269,0.9880099452764559,0.01598966100421643,0.024341711456155976,0.9880099452764559,0.9866546616700924,0.017737070229110842,0.026966306301223188,0.9866546616700924,0.961397893431262,0.047386390201759866,0.026508206165333684,0.961397893431262,-0.0,-0.0,1.0,0.0
0.9843166039315329,0.02091099955959634,0.021966042200476432,0.9843166039315329,NORMAL,0.9881756442294806,0.016054891890140328,0.02154366523572169,0.9881756442294806,0.9778912545005439,0.030071747939104977,0.038291654773269436,0.9778912545005439,0.9882238449329481,0.015748375224453607,0.024427498778680813,0.9882238449329481,0.9864323472104779,0.018091833255542183,0.027615423095430476,0.9864323472104779,0.9609282728096111,0.04775922362422231,0.02691079116244688,0.9609282728096111,-0.0,-0.0,1.0,0.0
0.9845974172043459,0.020545996930069244,0.020403476395031317,0.9845974172043459,NORMAL,0.9888131689702677,0.015164318951879958,0.01962454577758097,0.9888131689702677,0.9778912545005439,0.030071747939104616,0.03836361301429032,0.9778912545005439,0.98735100553256,0.016914615933653464,0.02627103313946281,0.98735100553256,0.985705497258785,0.019164003473165853,0.029211305192226512,0.985705497258785,0.9598806794686711,0.0489495384725791,0.026571862753900406,0.9598806794686711,-0.0,-0.0,1.0,0.0
0.9850642677269486,0.01999332113470367,0.020167459643615424,0.9850642677269486,NORMAL,0.9896823255039876,0.013997343606223074,0.01801438337674986,0.9896823255039876,0.9782558755421856,0.02963779475600046,0.03761512103681935,0.9782558755421856,0.9863526096052639,0.018448338669388557,0.0282909741654706,0.9863526096052639,0.9862845231863736,0.018289532075545595,0.027744461605135134,0.9862845231863736,0.9592660049219642,0.04966080116525994,0.02680864469935698,0.9592660049219642,-0.0,-0.0,1.0,0.0
0.9856323389062964,0.019247375518280655,0.020522138698014288,0.9856323389062964,NORMAL,0.9894284721076809,0.014314074727249097,0.01715366694867037,0.9894284721076809,0.9781350113945878,0.029781018865423364,0.038544479302227576,0.9781350113945878,0.9850992846316768,0.020293328994579318,0.030987049569107233,0.9850992846316768,0.986151533937665,0.01845823677540375,0.026808328786880976,0.986151533937665,0.959099611163027,0.049883882848484676,0.026160556047635772,0.959099611163027,-0.0,-0.0,1.0,0.0
0.9855114747586986,0.019393008886412173,0.021446105040912194,0.9855114747586986,NORMAL,0.989996543287029,0.013561463601652682,0.015911740166110796,0.989996543287029,0.9781350113945878,0.02978101886542301,0.03974312462982575,0.9781350113945878,0.9852105216314415,0.02016599852187971,0.03154051652178161,0.9852105216314415,0.9851801479229839,0.01972915727519706,0.02933669038896638,0.9851801479229839,0.9582184115810239,0.05084679763182629,0.02527060000047601,0.9582184115810239,-0.0,-0.0,1.0,0.0
0.9856323389062964,0.019247375518280655,0.020522138698014288,0.9856323389062964,NORMAL,0.9903982207074395,0.013045084687072814,0.015101191108239514,0.9903982207074395,0.9792898889116909,0.028343435724291932,0.037370377710239044,0.9792898889116909,0.98599489954855,0.019178445602413125,0.02994268303747821,0.98599489954855,0.9859069978746768,0.0186579900916685,0.02924989733011303,0.9859069978746768,0.9564066779391727,0.05292002881780252,0.026545252806207766,0.9564066779391727,-0.0,-0.0,1.0,0.0
0.9865014954400164,0.018087837223981263,0.01834556029443641,0.9865014954400164,NORMAL,0.9905190848550374,0.012897931069667728,0.014465558415633191,0.9905190848550374,0.9792898889116909,0.028343435724291932,0.037370377710239044,0.9792898889116909,0.9861162758323664,0.01903242544298142,0.030133050003427746,0.9861162758323664,0.9850471586742753,0.019897473184392334,0.03161422927908708,0.9850471586742753,0.9559948003356069,0.05324766723949088,0.026965578367496315,0.9559948003356069,-0.0,-0.0,1.0,0.0
0.9858639706992295,0.018974391713730773,0.019028058010042155,0.9858639706992295,NORMAL,0.9908529461289313,0.012508542512420468,0.014476624502378053,0.9908529461289313,0.9785315000233059,0.02935999414575654,0.04016693294336531,0.9785315000233059,0.9852365813007589,0.0201200159913145,0.03185717241788948,0.9852365813007589,0.9850471586742753,0.019897473184392334,0.031515697140449675,0.9850471586742753,0.954287268663979,0.055060337618373374,0.027496914882980422,0.954287268663979,-0.0,-0.0,1.0,0.0
0.9858639706992295,0.018974391713730773,0.018551449271227753,0.9858639706992295,NORMAL,0.9915317849536144,0.011624898058850967,0.013510093161859872,0.9915317849536144,0.9775507966753065,0.030723565929375425,0.042703682127270125,0.9775507966753065,0.9846661030401425,0.02086675521961207,0.033921768779557285,0.9846661030401425,0.9851493881552362,0.019785374655775796,0.031218061532199665,0.9851493881552362,0.9534621562442971,0.05640437124589024,0.030543034021722055,0.9534621562442971,-0.0,-0.0,1.0,0.0
0.9870188482163327,0.01751225011200513,0.016359288464759373,0.9870188482163327,NORMAL,0.9914210173082793,0.011753789699865633,0.01330931811626737,0.9914210173082793,0.9754053877404913,0.03413341226881183,0.04637802007196682,0.9754053877404913,0.9838374943813942,0.022289283873115663,0.03538172489843083,0.9838374943813942,0.9851493881552364,0.01978537465577616,0.029216604482620125,0.9851493881552364,0.9539290067668996,0.055887347696194085,0.03053536223408611,0.9539290067668996,-0.0,-0.0,1.0,0.0
0.9867872164233995,0.017785907347635202,0.017049265304902524,0.9867872164233995,NORMAL,0.9913001531606813,0.011901219673908791,0.012980954058261657,0.9913001531606813,0.9749581807087415,0.034720626033194556,0.04751791428915187,0.9749581807087415,0.9843441677357271,0.021573045514010143,0.033606932692172686,0.9843441677357271,0.9860092273556378,0.018545661597117954,0.02748762383333969,0.9860092273556378,0.9547100750725439,0.05496339097781634,0.0293558973508887,0.9547100750725439,-0.0,-0.0,1.0,0.0
0.9865742192971033,0.01802595074043731,0.016836813011881606,0.9865742192971033,NORMAL,0.9918125982264274,0.011254503612296254,0.012432535304340953,0.9918125982264274,0.9734955435482724,0.03697639343417798,0.051518899712487805,0.9734955435482724,0.9859343787950994,0.019115999404915228,0.030085792445878716,0.9859343787950994,0.9854302014280492,0.019419732358561433,0.02842480004960013,0.9854302014280492,0.9543533636045699,0.05545281531570881,0.030557332561412198,0.9543533636045699,-0.0,-0.0,1.0,0.0
0.9874433758308233,0.016864196890400324,0.014629731547043924,0.9874433758308233,NORMAL,0.9918125982264274,0.011254503612296254,0.013100685227152332,0.9918125982264274,0.9748251914600329,0.03488509483352784,0.049081143524118055,0.9748251914600329,0.9871877037686863,0.01726790666520035,0.027496933240806536,0.9871877037686863,0.9847206124466511,0.02026956417224471,0.03024090607220776,0.9847206124466511,0.9522121967505155,0.05830123294481628,0.03245696160587272,0.9522121967505155,-0.0,-0.0,1.0,0.0
0.9874433758308233,0.016864196890400324,0.014629731547043924,0.9874433758308233,NORMAL,0.9911979236797204,0.012014856786497032,0.013927416183764911,0.9911979236797204,0.9749581807087415,0.034720626033194556,0.048067532350270635,0.9749581807087415,0.9875910832120649,0.016753457867707357,0.027182868385365953,0.9875910832120649,0.9849109301556882,0.01998512392744958,0.029604837927007896,0.9849109301556882,0.9527246418162614,0.05770547013530306,0.030569183940080537,0.9527246418162614,-0.0,-0.0,1.0,0.0
0.9874433758308233,0.0168641968903996,0.014192822702119374,0.9874433758308233,NORMAL,0.9909662918867872,0.012290992380535755,0.01368393051337462,0.9909662918867872,0.9749581807087415,0.034720626033194556,0.048356215938492174,0.9749581807087415,0.987187703768686,0.017267906665200346,0.02898891620711535,0.987187703768686,0.98527555119733,0.019544162309971948,0.028837186812336938,0.98527555119733,0.9519977918645685,0.05870982640882381,0.0324789739666902,0.9519977918645685,-0.0,-0.0,1.0,0.0
0.9875541434761584,0.016736406136740448,0.013887684922107568,0.9875541434761584,NORMAL,0.9905646144663767,0.012807979331059045,0.014126823470812393,0.9905646144663767,0.9748632662740504,0.03481773164115793,0.048164354389017915,0.9748632662740504,0.9872989407684507,0.017139955669323668,0.029013603773009967,0.9872989407684507,0.985386318842665,0.019416961680330014,0.0277520245561754,0.985386318842665,0.9533749838412862,0.05701424901646561,0.03177639314922694,0.9533749838412862,-0.0,-0.0,1.0,0.0
0.9881916682169454,0.015846845938747085,0.013799931806265217,0.9881916682169454,NORMAL,0.9913230033547614,0.011765701400176548,0.012281656159798145,0.9913230033547614,0.976419214517597,0.03268389145318432,0.044859476653302706,0.976419214517597,0.9877023202118294,0.016625395060567535,0.027842218081588946,0.9877023202118294,0.9858335258744149,0.01881618575131207,0.027617615750552087,0.9858335258744149,0.954892197803877,0.055475564255456376,0.030753306876820066,0.954892197803877,-0.0,-0.0,1.0,0.0
0.9893188407519068,0.014141687250769683,0.01232527122999179,0.9893188407519068,NORMAL,0.9909662918867872,0.012290992380535755,0.01368393051337462,0.9909662918867872,0.9755593753171954,0.03389876996623178,0.045867559428966136,0.9755593753171954,0.9879002994830562,0.01641202828910009,0.026824295574685374,0.9879002994830562,0.9857005366257062,0.018984739995555198,0.02821478811463977,0.9857005366257062,0.9547018800948397,0.05574402081875218,0.031125558619305157,0.9547018800948397,-0.0,-0.0,1.0,0.0
0.9898869119312544,0.013389062303834525,0.011052334170369155,0.9898869119312544,NORMAL,0.9913309129284289,0.01184439897881167,0.013621270381880149,0.9913309129284289,0.9763177642055804,0.032888963556805595,0.04341324378750595,0.9763177642055804,0.9877518490859686,0.01661071514655663,0.02635189023397764,0.9877518490859686,0.986065157667348,0.018543043079803555,0.027893345309402635,0.986065157667348,0.9536479421533594,0.057598027147309994,0.035104758677057146,0.9536479421533594,-0.0,-0.0,1.0,0.0
0.9904486768885483,0.012729076458921356,0.009879671057814735,0.9904486768885483,NORMAL,0.9913309129284289,0.01184439897881276,0.013326253311294911,0.9913309129284289,0.9759212755768618,0.03330754837029721,0.04306572760060513,0.9759212755768618,0.9887502450132646,0.015072908530076784,0.023713751871191215,0.9887502450132646,0.9859543900220129,0.01867043252493885,0.028115345156755147,0.9859543900220129,0.952801582891211,0.05884754765605918,0.03616891320094632,0.952801582891211,-0.0,-0.0,1.0,0.0
0.9907628946715897,0.012292449808009517,0.00949630776134896,0.9907628946715897,NORMAL,0.9909292355080184,0.012361760850697841,0.013014094235437385,0.9909292355080184,0.9750400759948589,0.03430392930719203,0.04413828265086415,0.9750400759948589,0.9877518490859686,0.01661071514655663,0.026685836931792634,0.9877518490859686,0.9855897689803712,0.019112031153788563,0.02822682134282764,0.9855897689803712,0.9533140279569569,0.05825167129452935,0.03551329628280029,0.9533140279569569,-0.0,-0.0,1.0,0.0
0.9906521270262547,0.012421164840401289,0.009217180235930695,0.9906521270262547,NORMAL,0.990615017724977,0.012798440161877258,0.012022495973993609,0.990615017724977,0.9750400759948589,0.03430392930719203,0.04413828265086415,0.9750400759948589,0.9876033986888809,0.016809341540945075,0.026565501681517428,0.9876033986888809,0.9857869128960234,0.018900004954584652,0.028107893146028795,0.9857869128960234,0.9538185634490354,0.05757901288047483,0.034010912722249646,0.9538185634490354,-0.0,-0.0,1.0,0.0
0.9909859883001487,0.012031562156504113,0.009259921480057283,0.9909859883001487,NORMAL,0.9903611643286706,0.013115783845760544,0.012040031025797381,0.9903611643286706,0.976953853136741,0.031163464102121938,0.040941438300286646,0.976953853136741,0.9871898013829519,0.017338772515920312,0.028024579939173795,0.9871898013829519,0.9861207741699175,0.018514550444318944,0.02721693504447665,0.9861207741699175,0.9559597303030894,0.05472373808118204,0.03211128367778913,0.9559597303030894,-0.0,-0.0,1.0,0.0
0.9909859883001487,0.012031562156504113,0.008634716807177735,0.9909859883001487,NORMAL,0.9897930931493226,0.013868933695825305,0.012987868056429031,0.9897930931493226,0.9774435009309154,0.0303671054885371,0.04037406339539355,0.9774435009309154,0.9868792692980413,0.017680272176632397,0.02910522269017543,0.9868792692980413,0.9862315418152525,0.018387121286516935,0.026909849612973595,0.9862315418152525,0.9565387562306782,0.05389786860634859,0.031410670117122515,0.9565387562306782,-0.0,-0.0,1.0,0.0
0.9913986204688002,0.011385748955765915,0.00861838779375902,0.9913986204688002,NORMAL,0.9897930931493226,0.013868933695825305,0.012987868056429031,0.9897930931493226,0.9773226367833175,0.030510114379130097,0.04205664452121098,0.9773226367833175,0.9867675589493416,0.017808346259368873,0.029159840006988038,0.9867675589493416,0.9869103806399355,0.017511721806099424,0.024618822837776992,0.9869103806399355,0.9570512012964243,0.05329675688186853,0.031226089873991027,0.9570512012964243,-0.0,-0.0,1.0,0.0
0.9912322267098634,0.011623296301278193,0.007996209888250356,0.9912322267098634,NORMAL,0.9897930931493226,0.013868933695825305,0.012987868056429031,0.9897930931493226,0.9767222504741274,0.031151596921021985,0.041996361512829934,0.9767222504741274,0.9860027156874387,0.01884574144527534,0.030610139729962623,0.9860027156874387,0.9871420124328684,0.01723796502798073,0.024268687637348064,0.9871420124328684,0.9557215533846637,0.055322540655023573,0.03368377445850127,0.9557215533846637,-0.0,-0.0,1.0,0.0
0.9912322267098634,0.011623296301278193,0.007282496986392727,0.9912322267098634,NORMAL,0.9899139572969204,0.01372197252392727,0.013117994090727126,0.9899139572969204,0.9768431146217254,0.03100875988939924,0.040430009499142064,0.9768431146217254,0.9858508647568849,0.019063127744668992,0.03069711920067782,0.9858508647568849,0.9872527800782037,0.01711025636664151,0.02301952977879445,0.9872527800782037,0.955308921216012,0.055925786364698735,0.03470234233729187,0.955308921216012,-0.0,-0.0,1.0,0.0
0.9912322267098634,0.011623296301278193,0.007656429099726441,0.9912322267098634,NORMAL,0.9887202568226247,0.015358751950054497,0.014668025215636748,0.9887202568226247,0.9768431146217254,0.03100875988939924,0.039606135744274976,0.9768431146217254,0.985089262356261,0.020096241735977075,0.03231789316686626,0.985089262356261,0.9872527800782037,0.01711025636664151,0.0217770878408252,0.9872527800782037,0.9556735422576537,0.055512242504969764,0.03477014079456809,0.9556735422576537,-0.0,-0.0,1.0,0.0
0.9908983654359691,0.012013135349843454,0.008443769995554252,0.9908983654359691,NORMAL,0.9887202568226247,0.015358751950054497,0.015120322668256756,0.9887202568226247,0.9777243142037282,0.03000745107610346,0.03844446007736136,0.9777243142037282,0.9850892623562612,0.020096241735977075,0.033416502816216005,0.9850892623562612,0.9865431910968057,0.01796337273476771,0.02267455953161377,0.9865431910968057,0.9562416134370015,0.05481035190241756,0.03411582588949585,0.9562416134370015,-0.0,-0.0,1.0,0.0
0.9907505414118648,0.0122126607018349,0.007838272903409106,0.9907505414118648,NORMAL,0.9894471067743178,0.01428042126048648,0.013639729558575075,0.9894471067743178,0.9775113170774319,0.03024255605968185,0.03891111332774672,0.9775113170774319,0.98485664907268,0.020369263250288868,0.032640192428427715,0.98485664907268,0.9872527800782037,0.01711025636664151,0.02093580978568707,0.9872527800782037,0.9566103679532586,0.05445413037443932,0.034282048289115144,0.9566103679532586,-0.0,-0.0,1.0,0.0
0.9907505414118648,0.0122126607018349,0.007460949704716662,0.9907505414118648,NORMAL,0.989045429353907,0.014795792409454726,0.012986547539769046,0.989045429353907,0.9773783278287235,0.030408089625675795,0.03966164329631258,0.9773783278287235,0.9849780253564965,0.02022356385157538,0.03223866502900206,0.9849780253564965,0.9876544574986145,0.016596782420478625,0.019418023786741002,0.9876544574986145,0.9577018389465931,0.05302578647260812,0.03306517416167013,0.9577018389465931,-0.0,-0.0,1.0,0.0
0.9910647591949062,0.011775734777330389,0.007033036125576549,0.9910647591949062,NORMAL,0.989045429353907,0.014795792409454726,0.013391315622659118,0.989045429353907,0.9775113170774319,0.03024255605968185,0.03835890310446824,0.9775113170774319,0.9852935745708218,0.01979080922748446,0.030206581612897795,0.9852935745708218,0.9874414603723181,0.016837300013610838,0.019619770834814122,0.9874414603723181,0.9578348281953019,0.052866894011768154,0.03153229546247021,0.9578348281953019,-0.0,-0.0,1.0,0.0
0.9900840558469066,0.013174938826395963,0.007929423987441382,0.9900840558469066,NORMAL,0.988335840372509,0.015652164121982295,0.013679537808237684,0.988335840372509,0.9777243142037282,0.03000745107610346,0.03859749408605214,0.9777243142037282,0.984958298630513,0.02017622030756998,0.03138344731880624,0.984958298630513,0.9885329313656527,0.015317453781836587,0.019140226897506295,0.9885329313656527,0.9572558022677129,0.05369459480619824,0.033558600822315765,0.9572558022677129,-0.0,-0.0,1.0,0.0
0.9905965009126527,0.012529690075058955,0.007963527645684414,0.9905965009126527,NORMAL,0.9878886333407592,0.0162559406348905,0.014193064455481139,0.9878886333407592,0.9784511641554212,0.028952246560311326,0.038340212152517136,0.9784511641554212,0.9851494227705205,0.019890991985435584,0.030648020262402157,0.9851494227705205,0.9892913202540375,0.014279277449455634,0.019087477603611645,0.9892913202540375,0.9579357677709245,0.05265650316789205,0.030814519641324502,0.9579357677709245,-0.0,-0.0,1.0,0.0
0.9912340256534397,0.011634617387273423,0.00770335504700419,0.9912340256534397,NORMAL,0.9881694466135719,0.015888247367213233,0.013477080739635107,0.9881694466135719,0.9783181749067125,0.02911812258844348,0.037487225432910116,0.9783181749067125,0.9847911998132753,0.02041125678269199,0.031737985235883726,0.9847911998132753,0.9887788751882917,0.014922752231739408,0.02032871481720529,0.9887788751882917,0.9582924792388986,0.052164045776424896,0.029745672191708403,0.9582924792388986,-0.0,-0.0,1.0,0.0
0.9920150939590838,0.010636177016726615,0.006769533048429615,0.9920150939590838,NORMAL,0.9874110577251871,0.01692398580202034,0.013023591864372765,0.9874110577251871,0.9780865431137795,0.029386546286808393,0.037245445507079804,0.9780865431137795,0.9845773001567829,0.020650667746113956,0.031539617121835894,0.9845773001567829,0.9895599434939357,0.01392942577060035,0.018498340176390897,0.9895599434939357,0.9612762633116214,0.04812423863921721,0.025562223851607592,0.9612762633116214,-0.0,-0.0,1.0,0.0
0.9918020968327875,0.010879068109466995,0.006519820829826577,0.9918020968327875,NORMAL,0.987678391059747,0.016467300599083988,0.0128214638549459,0.987678391059747,0.9784511641554212,0.028952246560312044,0.036718378270804375,0.9784511641554212,0.9838647044424128,0.021500517572841788,0.03150457026892561,0.9838647044424128,0.9896707111392709,0.013801024522302655,0.01741317792022936,0.9896707111392709,0.9615619842950045,0.04783922613155803,0.025790130130671676,0.9615619842950045,-0.0,-0.0,1.0,0.0
0.9920829101056003,0.010508359749684627,0.0067114491168814554,0.9920829101056003,NORMAL,0.9876783910597469,0.016467300599083984,0.01326371118799148,0.9876783910597469,0.9784511641554212,0.028952246560312044,0.03745825266434534,0.9784511641554212,0.9836667251711857,0.021711961695203643,0.032842571394498574,0.9836667251711857,0.9903082358800578,0.012907621853052125,0.016087137569310378,0.9903082358800578,0.9632562532484065,0.045368794065499055,0.023215998360406442,0.9632562532484065,-0.0,-0.0,1.0,0.0
0.9928097600572933,0.009422734050123963,0.0058794343123936025,0.9928097600572933,NORMAL,0.9882464622390947,0.01571728744826369,0.012181160854928198,0.9882464622390947,0.9783181749067125,0.0291181225884442,0.03652509294885662,0.9783181749067125,0.9835453488873693,0.021857276804373268,0.033614265091240686,0.9835453488873693,0.9905620892763642,0.012590242124332665,0.01554888644657038,0.9905620892763642,0.9628916322067651,0.04578979484152203,0.0229201118810727,0.9628916322067651,-0.0,-0.0,1.0,0.0
0.9924451390156517,0.00987089629127567,0.005956077226584072,0.9924451390156517,NORMAL,0.9875676234144116,0.016595138084748183,0.013092731735586671,0.9875676234144116,0.9781973107591146,0.029261420488246016,0.037153374464196746,0.9781973107591146,0.9842579446017394,0.02100797121892491,0.032696598137544886,0.9842579446017394,0.9910289397989671,0.012030352630514402,0.01421742235858691,0.9910289397989671,0.9644475804503114,0.043701219297480484,0.021529943450229967,0.9644475804503114,-0.0,-0.0,1.0,0.0
0.9924451390156517,0.00987089629127567,0.0060565963683434365,0.9924451390156517,NORMAL,0.9877992552073447,0.01632097858386567,0.012474564624960669,0.9877992552073447,0.977463935201216,0.030069872246727334,0.03787041793952283,0.977463935201216,0.9842579446017394,0.02100797121892491,0.03266398183481594,0.9842579446017394,0.9909080756513693,0.012177689430518338,0.013907507460916065,0.9909080756513693,0.9654598443630674,0.04274057669349456,0.02149953206964731,0.9654598443630674,-0.0,-0.0,1.0,0.0
0.9924451390156517,0.00987089629127567,0.005639171816910646,0.9924451390156517,NORMAL,0.9882118873759964,0.015679065350877177,0.012143128633994697,0.9882118873759964,0.9776355458018209,0.029903563927531497,0.038491151760140424,0.9776355458018209,0.984379320885556,0.020862442198251827,0.03232918439525652,0.984379320885556,0.9907973080060343,0.012306436557344615,0.014164042585018815,0.9907973080060343,0.9664117388045171,0.04182265246866852,0.02187450782252989,0.9664117388045171,-0.0,-0.0,1.0,0.0
0.9921912856193453,0.0101895873379458,0.006024010877041992,0.9921912856193453,NORMAL,0.9879895729163817,0.01603486401070419,0.013506988966163983,0.9879895729163817,0.9778893991981273,0.02959474297035056,0.03879602996028901,0.9778893991981273,0.9851092507099256,0.019790404938190294,0.030837598854928545,0.9851092507099256,0.990584310879738,0.012548664740025679,0.015205949028993946,0.990584310879738,0.9673924421525165,0.040486572186545715,0.020409848655437164,0.9673924421525165,-0.0,-0.0,1.0,0.0
0.9921912856193453,0.0101895873379458,0.006024010877041992,0.9921912856193453,NORMAL,0.9882118873759964,0.015679065350877177,0.011780191475267324,0.9882118873759964,0.9778893991981273,0.02959474297035056,0.03925873223489036,0.9778893991981273,0.9862411993996961,0.018090947241746185,0.028703757533888253,0.9862411993996961,0.9912631497044209,0.01166529183302959,0.014782967275666019,0.9912631497044209,0.9689759434605834,0.03811019231990315,0.018221931865163823,0.9689759434605834,-0.0,-0.0,1.0,0.0
0.991877067836304,0.010627520868556846,0.006798436096084776,0.991877067836304,NORMAL,0.9877992552073447,0.016320978583865307,0.013389793442755496,0.9877992552073447,0.9778893991981271,0.029594742970350557,0.03969564505376025,0.9778893991981271,0.9861299623999314,0.018218649740549663,0.028260191343980497,0.9861299623999314,0.9913840138520187,0.011517838703389703,0.014428515043150819,0.9913840138520187,0.9682883950721067,0.03894209444463529,0.017925340212706746,0.9682883950721067,-0.0,-0.0,1.0,0.0
0.9915962545634909,0.010998117319494176,0.006675829563905545,0.9915962545634909,NORMAL,0.9873520481755946,0.01692411666039239,0.014022288392093189,0.9873520481755946,0.9790712230857836,0.027678322067851237,0.03900220374115837,0.9790712230857836,0.9853284142912723,0.019161042335567702,0.02984614215354334,0.9853284142912723,0.9924754848453532,0.009985926150957891,0.012650406289440294,0.9924754848453532,0.9682883950721067,0.03894209444463529,0.019270056665678662,0.9682883950721067,-0.0,-0.0,1.0,0.0
0.9919979319839018,0.010479848210391185,0.006606856347169309,0.9919979319839018,NORMAL,0.9882118873759964,0.015679065350877177,0.012750053994965583,0.9882118873759964,0.9792042123344923,0.02751211671420065,0.03911531606722442,0.9792042123344923,0.9851560765271056,0.01933088360770934,0.028978209486090274,0.9851560765271056,0.9927562981181661,0.009614709280202445,0.011643061840703264,0.9927562981181661,0.9689056741719776,0.038215319034280215,0.019699846535381385,0.9689056741719776,-0.0,-0.0,1.0,0.0
0.9922109291101979,0.010236822527088386,0.00689249818834825,0.9922109291101979,NORMAL,0.9876994423102505,0.016321095637753327,0.013076268234078335,0.9876994423102505,0.9792042123344921,0.027512116714200646,0.03883655407471223,0.9792042123344921,0.9848468602561141,0.019670419713968282,0.030758325275089763,0.9848468602561141,0.9927562981181661,0.009614709280202445,0.012107306784262419,0.9927562981181661,0.9697980877370095,0.03733700389721648,0.019606289352802387,0.9697980877370095,-0.0,-0.0,1.0,0.0
0.9922109291101979,0.010236822527088386,0.007112934778337727,0.9922109291101979,NORMAL,0.9885592815106521,0.015075071321938544,0.012529301571419679,0.9885592815106521,0.9785538703094673,0.028243751699606027,0.04087106418339134,0.9785538703094673,0.9845919312098231,0.019984739430504696,0.029908297190239384,0.9845919312098231,0.9927562981181661,0.009614709280202445,0.012107306784262419,0.9927562981181661,0.9690364853363856,0.03833844790515068,0.020545397738020763,0.9690364853363856,-0.0,-0.0,1.0,0.0
0.9922109291101979,0.010236822527088386,0.007185686298803936,0.9922109291101979,NORMAL,0.9891968062514391,0.014183512934008474,0.012067971673548656,0.9891968062514391,0.9786747344570653,0.028100273242757854,0.04208487143855011,0.9786747344570653,0.9843099280502611,0.020350678325532407,0.0292263210815575,0.9843099280502611,0.9935146870065511,0.008567644272174655,0.010197837616952152,0.9935146870065511,0.9680380894090895,0.039820978831772165,0.022874092599155592,0.9680380894090895,-0.0,-0.0,1.0,0.0
0.993080085643918,0.00906143294855139,0.006026275597172943,0.993080085643918,NORMAL,0.988327649717719,0.015349739633772888,0.013080620915924655,0.988327649717719,0.9786747344570653,0.028100273242757854,0.04208487143855011,0.9786747344570653,0.9845919312098231,0.019984739430505057,0.02727832237613806,0.9845919312098231,0.9937955002793639,0.008195632032100662,0.009844443629787565,0.9937955002793639,0.9668393308819366,0.04139210862995431,0.023685634943208016,0.9668393308819366,-0.0,-0.0,1.0,0.0
0.9929693179985829,0.009190815859874895,0.005740202558956321,0.9929693179985829,NORMAL,0.9885179674267563,0.015063281651466389,0.013003429797783649,0.9885179674267563,0.9768690322285187,0.030483932265831577,0.04543893152003211,0.9768690322285187,0.9842458023307264,0.020326680248101577,0.026578696365634535,0.9842458023307264,0.99301443197372,0.009197813930837878,0.010710137305401277,0.99301443197372,0.9668393308819366,0.04139210862995431,0.023685634943208016,0.9668393308819366,-0.0,-0.0,1.0,0.0
0.993080085643918,0.00906143294855139,0.006338691780560949,0.993080085643918,NORMAL,0.9888321852097975,0.014628263584031909,0.0120004118203684,0.9888321852097975,0.9763644967364404,0.03118830433000097,0.04583564213843875,0.9763644967364404,0.9836116636158285,0.020973533707983053,0.026929463306986045,0.9836116636158285,0.9927065204127326,0.009542685238272215,0.011428662281134616,0.9927065204127326,0.965946917316905,0.04226378863697572,0.024053314312696424,0.965946917316905,-0.0,-0.0,1.0,0.0
0.9932130748926267,0.008890249879628285,0.006238172638801586,0.9932130748926267,NORMAL,0.9895905740981823,0.01358923752213362,0.010554928080520786,0.9895905740981823,0.9767609853651585,0.030768656607907223,0.045280186163415725,0.9767609853651585,0.9837787624330662,0.02073888252268148,0.025615442226452456,0.9837787624330662,0.9931537274444825,0.008932869607608787,0.01104031993892828,0.9931537274444825,0.9645418874476324,0.04375991097351406,0.024454410216434703,0.9645418874476324,-0.0,-0.0,1.0,0.0
0.9930922107450288,0.009038300015452683,0.006228533539788069,0.9930922107450288,NORMAL,0.9898713873709953,0.013220138341816836,0.010681439057132421,0.9898713873709953,0.9770467063485417,0.030473520393802238,0.04390918125512765,0.9770467063485417,0.9830171600324425,0.021768464094201894,0.027168458499327995,0.9830171600324425,0.9931537274444825,0.008932869607608787,0.01114129966067825,0.9931537274444825,0.9643186309775956,0.04410142489051278,0.02523858603250232,0.9643186309775956,-0.0,-0.0,1.0,0.0
0.9932130748926267,0.008890249879628285,0.006810957026706175,0.9932130748926267,NORMAL,0.9906524556766392,0.01222434572029655,0.010214636101467172,0.9906524556766392,0.9770467063485415,0.030473520393802224,0.044062921402200014,0.9770467063485415,0.9833753829896877,0.02124965753242934,0.026876809900827983,0.9833753829896877,0.9922777447041474,0.010035146340851285,0.01219765278676276,0.9922777447041474,0.9654505796673661,0.04246729962152123,0.023073020508763267,0.9654505796673661,-0.0,-0.0,1.0,0.0
0.993315304373588,0.008776055118428718,0.006958528132090396,0.993315304373588,NORMAL,0.9913312945013222,0.011340688665029136,0.00918705836061917,0.9913312945013222,0.9772783381414745,0.0302056544943951,0.044585435338377874,0.9772783381414745,0.9835733622609144,0.021038185537647847,0.026548750035570598,0.9835733622609144,0.9922777447041474,0.010035146340851285,0.011890930574381358,0.9922777447041474,0.9656738361374029,0.04212498307898118,0.02279191343727643,0.9656738361374029,-0.0,-0.0,1.0,0.0
0.9936799254152295,0.0083270918336035,0.007070857661134679,0.9936799254152295,NORMAL,0.9914642837500308,0.01117011704956218,0.009139609787055532,0.9914642837500308,0.9767609853651585,0.030768656607907223,0.043773343911169785,0.9767609853651585,0.9836845992606791,0.02091114362165409,0.026367238142733555,0.9836845992606791,0.9921568805565496,0.010182915545169575,0.011877451754387784,0.9921568805565496,0.9656738361374029,0.04212498307898118,0.022850573718122377,0.9656738361374029,-0.0,-0.0,1.0,0.0
0.9932130748926267,0.008890249879628285,0.0076891289904213594,0.9932130748926267,NORMAL,0.9912739660409938,0.011458193576264838,0.010008966436964964,0.9912739660409938,0.9767609853651585,0.030768656607907223,0.043773343911169785,0.9767609853651585,0.9840507653067345,0.020470222296582016,0.02620591102589556,0.9840507653067345,0.9921568805565496,0.010182915545169575,0.011490802480342916,0.9921568805565496,0.9670788660066755,0.04062457930981405,0.022243270146426682,0.9670788660066755,-0.0,-0.0,1.0,0.0
0.9935469361665207,0.008498431865487224,0.007085926919849757,0.9935469361665207,NORMAL,0.9909597482579526,0.011895313993762412,0.010900870325815977,0.9909597482579526,0.9767609853651585,0.030768656607907223,0.043773343911169785,0.9767609853651585,0.984806280305449,0.019677003362953076,0.025698948644504747,0.984806280305449,0.9924647921175369,0.009838437096953617,0.010585771264051108,0.9924647921175369,0.9673880822776669,0.04029809177588949,0.02387167038130685,0.9673880822776669,-0.0,-0.0,1.0,0.0
0.9931823151248791,0.008947271343178914,0.007680030142126018,0.9931823151248791,NORMAL,0.9905951272163109,0.012341718127234745,0.011400284957082384,0.9905951272163109,0.9768818495127564,0.030625766221689436,0.0451408913134009,0.9768818495127564,0.985366308841038,0.01909478965863986,0.025109367436808347,0.985366308841038,0.9933407748578721,0.008735775804114783,0.009611137697075228,0.9933407748578721,0.966957489722859,0.04076497880117968,0.02313575316514882,0.966957489722859,-0.0,-0.0,1.0,0.0
0.9925676405781722,0.009710122424476218,0.008373007462473827,0.9925676405781722,NORMAL,0.9906900416510019,0.012240783542089973,0.011278811782212102,0.9906900416510019,0.976485360884038,0.031045526978496267,0.046158549165845573,0.976485360884038,0.9861506867581467,0.018106222919845694,0.02370411010418119,0.9861506867581467,0.9932077856091633,0.008907001872648156,0.00992302469655994,0.9932077856091633,0.9675389691501409,0.039918419179911575,0.020797819148971365,0.9675389691501409,-0.0,-0.0,1.0,0.0
0.9927340343371092,0.009471929125473113,0.008761078662169929,0.9927340343371092,NORMAL,0.9906900416510019,0.012240783542089973,0.010247158337524157,0.9906900416510019,0.9747910919306361,0.03357697790028316,0.0504361006914733,0.9747910919306361,0.9865540662015253,0.01759267205525798,0.022479287251698878,0.9865540662015253,0.9928431645675216,0.009355535959238456,0.010301162562946515,0.9928431645675216,0.9656009457047829,0.04212475796126861,0.02261654729093121,0.9656009457047829,-0.0,-0.0,1.0,0.0
0.9923323569166984,0.009990997085033862,0.008810505940813684,0.9923323569166984,NORMAL,0.990409228378189,0.012610471867422328,0.010212766977525534,0.990409228378189,0.9725761275984512,0.03660383439333748,0.053607794916203065,0.9725761275984512,0.9871942923183326,0.016702552082830523,0.021387904208977054,0.9871942923183326,0.9925893111712152,0.009674488645467456,0.010210171633436987,0.9925893111712152,0.9656009457047829,0.04212475796126861,0.02261654729093121,0.9656009457047829,-0.0,-0.0,1.0,0.0
0.9926969779583401,0.009542930708406576,0.008319999697211729,0.9926969779583401,NORMAL,0.9902428346192519,0.012847572530533554,0.010549243765525297,0.9902428346192519,0.9711159020888597,0.0384433086541041,0.055985520738406874,0.9711159020888597,0.9881791511889931,0.015307743927898,0.020413080291384885,0.9881791511889931,0.9925893111712152,0.009674488645467456,0.00976359499635558,0.9925893111712152,0.9671245885400965,0.040537841796372584,0.02228517685269915,0.9671245885400965,-0.0,-0.0,1.0,0.0
0.9921845328925942,0.010191117639843374,0.008816870522057672,0.9921845328925942,NORMAL,0.9908109057985998,0.012093487508484792,0.009801440307193368,0.9908109057985998,0.9714805231305013,0.03801566013436211,0.05491874642717699,0.9714805231305013,0.9877300492121935,0.015912912199442828,0.02085739612263998,0.9877300492121935,0.9928431645675216,0.009355535959239183,0.009244088498466866,0.9928431645675216,0.9679085284231391,0.03983292090252246,0.02326678330256832,0.9679085284231391,-0.0,-0.0,1.0,0.0
0.9923323569166984,0.009990997085033862,0.008810505940813684,0.9923323569166984,NORMAL,0.9908109057985998,0.012093487508484792,0.009801440307193368,0.9908109057985998,0.972340362330903,0.036809750639914526,0.05065409481347954,0.972340362330903,0.9875161495557009,0.016154038348065447,0.02205079976392546,0.9875161495557009,0.9928431645675216,0.009355535959239183,0.009510377161313801,0.9928431645675216,0.9679085284231391,0.039832920902522814,0.023206773980601773,0.9679085284231391,-0.0,-0.0,1.0,0.0
0.9928448019824443,0.009342608720013877,0.008201897643759464,0.9928448019824443,NORMAL,0.9908109057985998,0.012093487508484792,0.009801440307193368,0.9908109057985998,0.9734318333242377,0.03533611481026962,0.04831431038538481,0.9734318333242377,0.9871499835096454,0.01659816696019664,0.022484899094360244,0.9871499835096454,0.9929909885916258,0.00915515615580586,0.009400063094792818,0.9929909885916258,0.9677843888215474,0.03992683313499302,0.0232277662364449,0.9677843888215474,-0.0,-0.0,1.0,0.0
0.9928448019824443,0.009342608720013877,0.008461669544605744,0.9928448019824443,NORMAL,0.9908109057985998,0.012093487508484792,0.009801440307193368,0.9908109057985998,0.9739363688163158,0.03463610411763657,0.04715942978171585,0.9739363688163158,0.9872612205094101,0.016470145531820003,0.022025221880260095,0.9872612205094101,0.9931239778403347,0.008984001212902803,0.009839186764115071,0.9931239778403347,0.9680905648062916,0.03965833448670758,0.022620048312928947,0.9680905648062916,-0.0,-0.0,1.0,0.0
0.9931590197654855,0.008903834833575344,0.0082480874618956,0.9931590197654855,NORMAL,0.9906779165498911,0.012263820788904622,0.009982505081172625,0.9906779165498911,0.9739363688163158,0.03463610411763657,0.04715942978171585,0.9739363688163158,0.9878784996092812,0.015714124960625696,0.02110730712102777,0.9878784996092812,0.992870124444028,0.009303140455450927,0.009764952137235782,0.992870124444028,0.9685972381606245,0.03896301492250193,0.022110932563353346,0.9685972381606245,-0.0,-0.0,1.0,0.0
0.9930482521201506,0.009033245767624926,0.008807268480306064,0.9930482521201506,NORMAL,0.9907886841952263,0.012135084741129388,0.009236950554394783,0.9907886841952263,0.9749695092608445,0.03350606664875562,0.04470140492302988,0.9749695092608445,0.9870941216921725,0.016706374897010698,0.024151142892404706,0.9870941216921725,0.9934381956233759,0.00854498886429531,0.008691954781262171,0.9934381956233759,0.9673224152499834,0.04036657932746142,0.021641102304240753,0.9673224152499834,-0.0,-0.0,1.0,0.0
0.9926465746997396,0.009552657956783896,0.009340272983462667,0.9926465746997396,NORMAL,0.9910016813215227,0.011892716570186005,0.008985234923053288,0.9910016813215227,0.9757278981492294,0.032496596735569296,0.042828181641689514,0.9757278981492294,0.9859980258217474,0.018225905056923432,0.027093895994572265,0.9859980258217474,0.9929336601312975,0.009272986177810177,0.009555808822728213,0.9929336601312975,0.9676885812960387,0.039940615036013094,0.02158503325001733,0.9676885812960387,-0.0,-0.0,1.0,0.0
0.9918655063940957,0.010552597633253046,0.010189450963998408,0.9918655063940957,NORMAL,0.9912555347178289,0.01157485005098346,0.009247284058464795,0.9912555347178289,0.9749755709775138,0.03327098375772603,0.04399928600330828,0.9749755709775138,0.9863135750360726,0.01779204971382453,0.02685607812284988,0.9863135750360726,0.9931875135276039,0.008953818504528277,0.009278809333391577,0.9931875135276039,0.968561420696427,0.03881894912283662,0.01977065806535813,0.968561420696427,-0.0,-0.0,1.0,0.0
0.9914182993623458,0.011160881176561742,0.011257131149315994,0.9914182993623458,NORMAL,0.9912555347178289,0.01157485005098346,0.00980987234946829,0.9912555347178289,0.9742970412839286,0.033979853233366344,0.04459251522000138,0.9742970412839286,0.9865046991760803,0.01750595624006042,0.02582605190012335,0.9865046991760803,0.9928732957445627,0.009392589331562355,0.010282475456955428,0.9928732957445627,0.968561420696427,0.03881894912283662,0.01977065806535813,0.968561420696427,-0.0,-0.0,1.0,0.0
0.9914182993623458,0.011160881176561742,0.011257131149315994,0.9914182993623458,NORMAL,0.9912555347178289,0.01157485005098346,0.010096041646914682,0.9912555347178289,0.9749285043080463,0.03334887600211479,0.044432857434889984,0.9749285043080463,0.9866717979933178,0.017270006725476694,0.02460642014162802,0.9866717979933178,0.9925924824717497,0.009763913426111406,0.010535380269545305,0.9925924824717497,0.9695598166237234,0.037334540284853314,0.01879326105179758,0.9695598166237234,-0.0,-0.0,1.0,0.0
0.9914182993623458,0.011160881176561742,0.011257131149315994,0.9914182993623458,NORMAL,0.9912555347178289,0.011574850050982735,0.01019652162351316,0.9912555347178289,0.9741761771363308,0.034121929324601855,0.0448891324331169,0.9741761771363308,0.9871208999701178,0.01666611975016003,0.023525671840278956,0.9871208999701178,0.9928241142646829,0.009486725654870314,0.011001199144573728,0.9928241142646829,0.9695598166237234,0.037334540284853314,0.017772007629657093,0.9695598166237234,-0.0,-0.0,1.0,0.0
0.9914182993623458,0.011160881176561742,0.011257131149315994,0.9914182993623458,NORMAL,0.9908909136761873,0.01202150796998731,0.010122391954552017,0.9908909136761873,0.973442801578432,0.0349232153666664,0.044691229035437534,0.973442801578432,0.9868053507557922,0.017100699567370183,0.024380189969338082,0.9868053507557922,0.9928241142646829,0.009486725654870314,0.011001199144573728,0.9928241142646829,0.9688769699107525,0.03839968088212422,0.019523843670207562,0.9688769699107525,-0.0,-0.0,1.0,0.0
0.9914182993623458,0.011160881176561742,0.011257131149315994,0.9914182993623458,NORMAL,0.9904892362557768,0.012538564062549499,0.010652870639807936,0.9904892362557768,0.9740108727577796,0.03419505132214909,0.04360654819107342,0.9740108727577796,0.9866382519385547,0.017336710485839513,0.023053413768481256,0.9866382519385547,0.992256043085335,0.010243863451498901,0.012069921349381242,0.992256043085335,0.9697026908445936,0.037574934357204055,0.019407590399524693,0.9697026908445936,-0.0,-0.0,1.0,0.0
0.9912519056034088,0.011398471054432755,0.011961034445495653,0.9912519056034088,NORMAL,0.9899847007636983,0.01326233920635174,0.012269844005945113,0.9899847007636983,0.9727346203566847,0.036457906211411664,0.04479889979880555,0.9727346203566847,0.9863833228922639,0.017652223579705254,0.023158512310129664,0.9863833228922639,0.9920337286257205,0.010602365077004718,0.012253907090805042,0.9920337286257205,0.9709073078201079,0.03622239394195594,0.018957232117551695,0.9709073078201079,-0.0,-0.0,1.0,0.0
0.9904935167150238,0.012440953845475566,0.013444120686245963,0.9904935167150238,NORMAL,0.9893058619390153,0.014143456299403917,0.013070143558562683,0.9893058619390153,0.9727346203566847,0.036457906211411664,0.04479889979880555,0.9727346203566847,0.9862720858924993,0.01777999454738875,0.02245481646104303,0.9862720858924993,0.9920337286257205,0.01060236507700399,0.01245093164240417,0.9920337286257205,0.9709857823205387,0.03615201932788257,0.018662380461945925,0.9709857823205387,-0.0,-0.0,1.0,0.0
0.990807734498065,0.012004215666028899,0.013274489375666117,0.990807734498065,NORMAL,0.9900869302446592,0.01314897302571613,0.013062381334580405,0.9900869302446592,0.9727346203566847,0.036457906211411664,0.04479889979880555,0.9727346203566847,0.9866864665025435,0.017138071011086373,0.020309091706334464,0.9866864665025435,0.9918434109166833,0.010890718474939082,0.012619800026330702,0.9918434109166833,0.9707531690369577,0.03641714781225501,0.018326002839665057,0.9707531690369577,-0.0,-0.0,1.0,0.0
0.9911644459660391,0.011478906873513916,0.012944126434229025,0.9911644459660391,NORMAL,0.9901976978899947,0.013020414430794146,0.013249389243385661,0.9901976978899947,0.9727346203566849,0.036457906211412386,0.04527178445813188,0.9727346203566849,0.9861049870752616,0.018015759684997443,0.02065246796349568,0.9861049870752616,0.9917326432713482,0.011019733437840806,0.01257677640226922,0.9917326432713482,0.9711675496470021,0.03579351311887098,0.01721289911647097,0.9711675496470021,-0.0,-0.0,1.0,0.0
0.9912974352147478,0.011308383020207915,0.013417494462770626,0.9912974352147478,NORMAL,0.9907101429557406,0.01237501012195669,0.012513925849965973,0.9907101429557406,0.9747976438263437,0.033565361121279516,0.041045225915916715,0.9747976438263437,0.9864711531213171,0.017572640481000348,0.020746076384676015,0.9864711531213171,0.9920134565441612,0.01064909129188,0.011747917731940416,0.9920134565441612,0.9718488268733166,0.035190666479173086,0.016971607332744748,0.9718488268733166,-0.0,-0.0,1.0,0.0
0.9916991126351586,0.010790398435017567,0.012614444363939045,0.9916991126351586,NORMAL,0.9914685318441252,0.011332244864271623,0.010993257529270684,0.9914685318441252,0.976264213936476,0.031013999265467697,0.039362510315082144,0.976264213936476,0.9877143095570993,0.016023900265955307,0.018375048168240444,0.9877143095570993,0.9917596031478547,0.010967442347411682,0.012056485428050386,0.9917596031478547,0.973253856742589,0.033669876406109515,0.016396886421871232,0.973253856742589,-0.0,-0.0,1.0,0.0
0.9916991126351584,0.010790398435017563,0.01256418479305936,0.9916991126351584,NORMAL,0.9914685318441252,0.011332244864271623,0.010993257529270684,0.9914685318441252,0.9757596784443975,0.03171764155280784,0.040416411197001144,0.9757596784443975,0.9879282092135915,0.01578269615550895,0.017213231624819785,0.9879282092135915,0.9914787898750418,0.011337897937053365,0.013003741500462233,0.9914787898750418,0.9734261945067558,0.03350470798558913,0.016753525980612805,0.9734261945067558,-0.0,-0.0,1.0,0.0
0.9915327188762215,0.011028118843175906,0.013230231253821393,0.9915327188762215,NORMAL,0.9911346705702311,0.01172227675358203,0.011522551971596953,0.9911346705702311,0.9746325059094361,0.03337865517467142,0.043536797527660216,0.9746325059094361,0.987524829770213,0.016297721680190797,0.01751428102567017,0.987524829770213,0.9917596031478547,0.010967442347411682,0.012635229872279021,0.9917596031478547,0.9736241737779829,0.033297954584967614,0.017575701562428173,0.9736241737779829,-0.0,-0.0,1.0,0.0
0.9922115577009045,0.010142843280637847,0.012251844218766812,0.9922115577009045,NORMAL,0.9902655140365112,0.012892997269063738,0.012762069458826299,0.9902655140365112,0.9743786525131297,0.033685410499707996,0.04367907689007783,0.9743786525131297,0.9878403789845384,0.015862560562906147,0.015828443606579205,0.9878403789845384,0.9917596031478547,0.010967442347411682,0.012209305387730069,0.9917596031478547,0.9725721414822082,0.03452332603027243,0.01781091423944135,0.9725721414822082,-0.0,-0.0,1.0,0.0
0.9928262322476116,0.00938053808649367,0.011355426343618804,0.9928262322476116,NORMAL,0.9900338822435781,0.013168662354199872,0.01258972138316397,0.9900338822435781,0.9737471894890117,0.03431578915785823,0.044490796241947975,0.9737471894890117,0.9876492548445307,0.016149368606103234,0.015022751655704901,0.9876492548445307,0.9922264536704573,0.01040609807418099,0.01144691436074079,0.9922264536704573,0.9732549881951791,0.0334511984137828,0.016168567316666646,0.9732549881951791,-0.0,-0.0,1.0,0.0
0.9926132351213153,0.00962390093944618,0.011528248229700201,0.9926132351213153,NORMAL,0.9898115677839637,0.013525693871010472,0.012804955126310776,0.9898115677839637,0.9736772797814596,0.03437443054537634,0.04434432492369868,0.9736772797814596,0.9866737527874146,0.017427307739590416,0.01547726812005584,0.9866737527874146,0.9919948218775245,0.010682901654770148,0.011770237360083913,0.9919948218775245,0.9738579185141539,0.032812431161179226,0.016208775796256347,0.9738579185141539,-0.0,-0.0,1.0,0.0
0.9920514701640213,0.010287118847987081,0.012679719099001202,0.9920514701640213,NORMAL,0.9899593918080677,0.013326557139945896,0.01222641547703957,0.9899593918080677,0.9738991303515375,0.03418090019779014,0.04459870982589102,0.9738991303515375,0.9858102702005707,0.01867180892033435,0.015925658215137334,0.9858102702005707,0.9929662078922056,0.009394072240969628,0.010291685979315181,0.9929662078922056,0.973176203253773,0.0336670403617227,0.01712261693949454,0.973176203253773,-0.0,-0.0,1.0,0.0
0.9923656879470626,0.009848999338646365,0.011678231208323132,0.9923656879470626,NORMAL,0.9903240128497096,0.012880807957121085,0.011529379284001074,0.9903240128497096,0.9749467236924775,0.03295578601240184,0.0426448936388092,0.9749467236924775,0.9849603246703622,0.020003763381832323,0.015776435992023427,0.9849603246703622,0.9928332186434969,0.00956514468652853,0.010862260044856163,0.9928332186434969,0.9715800492444928,0.035465945406718456,0.01815539604172733,0.9715800492444928,-0.0,-0.0,1.0,0.0
0.9922178639229584,0.010049147868369156,0.011851449203053739,0.9922178639229584,NORMAL,0.9903240128497096,0.012880807957121085,0.011418265195436839,0.9903240128497096,0.9755842484332645,0.032088458414885786,0.041420919999158125,0.9755842484332645,0.9853637041137407,0.01949162716380864,0.015806679811910328,0.9853637041137407,0.9923207735777511,0.010213410509827762,0.011506212969156101,0.9923207735777511,0.9719153251848021,0.035091231459384684,0.018725493477753548,0.9719153251848021,-0.0,-0.0,1.0,0.0
0.9922178639229584,0.010049147868369156,0.011291079662036725,0.9922178639229584,NORMAL,0.9900923810567764,0.013156492538027356,0.011608604661789196,0.9900923810567764,0.9768322851158237,0.0302813333132761,0.038341441007944135,0.9768322851158237,0.9863323510396376,0.01831377916004829,0.015577350491882528,0.9863323510396376,0.9926015868505638,0.009842316745361646,0.01046610662857194,0.9926015868505638,0.9717668747877144,0.0352837693948451,0.018424667360264928,0.9717668747877144,-0.0,-0.0,1.0,0.0
0.9916560989656646,0.01071185635523781,0.01229146503984095,0.9916560989656646,NORMAL,0.990457002098418,0.012710619548068652,0.011697717678804943,0.990457002098418,0.9773368206079021,0.02957614006238118,0.03656614980177237,0.9773368206079021,0.9863323510396376,0.01831377916004829,0.015869992899992743,0.9863323510396376,0.9916302008358827,0.011130227015028417,0.011888138135156693,0.9916302008358827,0.9705681162605614,0.036866934966133975,0.019900909073544006,0.9705681162605614,-0.0,-0.0,1.0,0.0
0.9917668666109998,0.010582817149133629,0.012218845674239172,0.9917668666109998,NORMAL,0.9903240128497094,0.012880807957120356,0.011997750754878437,0.9903240128497094,0.9776510383909434,0.029150815792506304,0.03595296555587438,0.9776510383909434,0.9861839006425499,0.01851185656071179,0.01613535153020513,0.9861839006425499,0.9908491325302389,0.012127884048153069,0.012844438508748692,0.9908491325302389,0.9686880805070938,0.039044975773326045,0.020177856838495396,0.9686880805070938,-0.0,-0.0,1.0,0.0
0.9906119890938967,0.012060266430716221,0.014234080968943392,0.9906119890938967,NORMAL,0.9902132452043743,0.013009398940075188,0.012442100387513403,0.9902132452043743,0.9776510383909431,0.029150815792506658,0.035977468259554855,0.9776510383909431,0.9852083985854336,0.019785513479681084,0.01823615383676156,0.9852083985854336,0.99071614328153,0.012298219409769096,0.013146814558803573,0.99071614328153,0.9678461529321608,0.03979288752801764,0.020623725684605118,0.9678461529321608,-0.0,-0.0,1.0,0.0
0.9897428325601766,0.013230061617420122,0.015058132757298634,0.9897428325601766,NORMAL,0.9899324319315613,0.013378687980769076,0.012486919072360986,0.9899324319315613,0.9761884012304741,0.031421443436331874,0.03897770753542557,0.9761884012304741,0.9845911194855628,0.02053688526997294,0.018975647445698553,0.9845911194855628,0.9902492927589271,0.012857802299000078,0.013507064935025695,0.9902492927589271,0.9669486552494245,0.04057809615632053,0.019794072570125904,0.9669486552494245,-0.0,-0.0,1.0,0.0
0.9890639937354939,0.014110980985208516,0.01639399099025753,0.9890639937354939,NORMAL,0.9904448769973074,0.012733645553588666,0.011691882926055035,0.9904448769973074,0.9750612286955129,0.03308356192581489,0.0409414214429563,0.9750612286955129,0.9844426690884749,0.020734268013006898,0.020250808236014245,0.9844426690884749,0.9902492927589271,0.012857802299000078,0.013512403059831887,0.9902492927589271,0.9669486552494245,0.04057809615632053,0.019794072570125904,0.9669486552494245,-0.0,-0.0,1.0,0.0
0.9891747613808289,0.013982665978121088,0.016360737591641583,0.9891747613808289,NORMAL,0.9903118877485986,0.012903828745384724,0.010861361105093368,0.9903118877485986,0.9749134046714086,0.033276645732389726,0.04075538363553014,0.9749134046714086,0.9844426690884749,0.020734268013006898,0.02114426571576534,0.9844426690884749,0.9912206787736084,0.011573408810304837,0.012423102023964882,0.9912206787736084,0.9669486552494245,0.04057809615632053,0.019794072570125904,0.9669486552494245,-0.0,-0.0,1.0,0.0
0.9888605435977877,0.014418043102422133,0.017110009768253494,0.9888605435977877,NORMAL,0.9903118877485986,0.012903828745384363,0.010296733181589277,0.9903118877485986,0.9747655806473045,0.033469669464181354,0.04259898109470395,0.9747655806473045,0.9841271198741496,0.021166335421576667,0.020380319685201254,0.9841271198741496,0.9906526075942605,0.012328109674819298,0.01268214218148778,0.9906526075942605,0.9676785850737941,0.03954046321335792,0.020074487577066567,0.9676785850737941,-0.0,-0.0,1.0,0.0
0.9891143969940942,0.01410152464404234,0.016599557756500752,0.9891143969940942,NORMAL,0.9903118877485986,0.012903828745384363,0.010664924097323041,0.9903118877485986,0.9740322050894055,0.03427196249218921,0.04205732047254653,0.9740322050894055,0.9841271198741496,0.021166335421576667,0.020380319685201254,0.9841271198741496,0.9895863071448885,0.01371171131209001,0.014284940039140897,0.9895863071448885,0.9684085148981637,0.03850121866475387,0.01874277918264647,0.9684085148981637,-0.0,-0.0,1.0,0.0
0.9900789568021601,0.012916175955152874,0.01555048464908596,0.9900789568021601,NORMAL,0.9897994426828529,0.013548694683929129,0.011459960243628992,0.9897994426828529,0.9743130183622186,0.03391474968285858,0.041575448694230896,0.9743130183622186,0.9841271198741496,0.021166335421576667,0.020380319685201254,0.9841271198741496,0.989332453748582,0.014028484271150886,0.015231278906575038,0.989332453748582,0.9680051354547851,0.0389963436395441,0.019571984788065582,0.9680051354547851,-0.0,-0.0,1.0,0.0
0.9903597700749731,0.012546699965439572,0.015535994655861701,0.9903597700749731,NORMAL,0.9900802559556657,0.013179504491842867,0.01158338432396345,0.9900802559556657,0.9745938316350314,0.033557325268633885,0.04076815636690824,0.9745938316350314,0.9841271198741496,0.021166335421576667,0.020380319685201254,0.9841271198741496,0.9884564710082469,0.015121943548480201,0.01662048088049592,0.9884564710082469,0.9686224145546561,0.038269829817889615,0.01883255465614877,0.9686224145546561,-0.0,-0.0,1.0,0.0
0.9903597700749731,0.012546699965439572,0.015535994655861701,0.9903597700749731,NORMAL,0.9906483271350135,0.012425736074750744,0.01098874796829341,0.9906483271350135,0.9757210041699927,0.031896587184991596,0.03838389451981073,0.9757210041699927,0.9841271198741496,0.021166335421576667,0.020380319685201254,0.9841271198741496,0.987989620485644,0.015678889388180323,0.01802890014608356,0.987989620485644,0.9684085148981637,0.03850121866475387,0.01874277918264647,0.9684085148981637,-0.0,-0.0,1.0,0.0
0.9903597700749731,0.012546699965439572,0.015535994655861701,0.9903597700749731,NORMAL,0.9896769411203323,0.013708538337455759,0.012864826480218099,0.9896769411203323,0.9760352219530342,0.03147274460275331,0.03641758577801633,0.9760352219530342,0.9843597331577305,0.020893711628576683,0.01953624127702199,0.9843597331577305,0.9870182344709629,0.01695498147860985,0.01981402259224679,0.9870182344709629,0.9685756137154014,0.03827332913878189,0.019599082261514147,0.9685756137154014,-0.0,-0.0,1.0,0.0
0.9903597700749731,0.012546699965439572,0.015535994655861701,0.9903597700749731,NORMAL,0.9893961278475193,0.014077424939339597,0.013011562104635107,0.9893961278475193,0.976846740895328,0.030595416735840708,0.034648333984939786,0.976846740895328,0.9831999620918261,0.0223508733933875,0.022345940328688266,0.9831999620918261,0.9872720878672694,0.016639718845980943,0.019465429272443456,0.9872720878672694,0.9680609972722583,0.038891551411217674,0.021012658995882186,0.9680609972722583,-0.0,-0.0,1.0,0.0
0.9899951490333314,0.012992588599840151,0.01639866307026299,0.9899951490333314,NORMAL,0.9895068954928546,0.013949062030177376,0.012479193287310453,0.9895068954928546,0.9777320573157525,0.02965173246326618,0.03372457173669803,0.9777320573157525,0.9826294838312101,0.02309472548503243,0.023808953894135336,0.9826294838312101,0.9868704104468587,0.017152971222801933,0.02087645146184855,0.9868704104468587,0.9664284382371094,0.04055731963972346,0.022249640438926587,0.9664284382371094,-0.0,-0.0,1.0,0.0
0.9896305279916898,0.013438145384775528,0.017275020808870487,0.9896305279916898,NORMAL,0.9896176631381897,0.013820670029693605,0.012581507115400663,0.9896176631381897,0.9784654328736512,0.028842733101289198,0.032585991236579306,0.9784654328736512,0.9819477685708293,0.02396419145015675,0.02488241513408727,0.9819477685708293,0.9866165570505522,0.017467970049086002,0.02133180859119286,0.9866165570505522,0.964744585915653,0.042250631766043614,0.023190585840227193,0.964744585915653,-0.0,-0.0,1.0,0.0
0.9891180829259439,0.014082281538834354,0.018114670303553862,0.9891180829259439,NORMAL,0.9900193405586005,0.013304598078849459,0.012276736424214603,0.9900193405586005,0.9801597018270531,0.026293120413965344,0.030476511960865458,0.9801597018270531,0.9822830445111381,0.02358129338463152,0.0240498313014874,0.9822830445111381,0.9868704104468587,0.017152971222801933,0.020199910020919122,0.9868704104468587,0.9649678423856898,0.04190852971330578,0.023402006578001584,0.9649678423856898,-0.0,-0.0,1.0,0.0
0.9890158534449828,0.01419543765393563,0.018017165210629425,0.9890158534449828,NORMAL,0.9900193405586005,0.013304598078849459,0.01198541637603173,0.9900193405586005,0.9811538851133059,0.024781080871591303,0.02954748895437181,0.9811538851133059,0.9822830445111381,0.02358129338463152,0.023953379502020238,0.9822830445111381,0.9868704104468587,0.017152971222800847,0.020949649663406393,0.9868704104468587,0.9634053011411113,0.04400603304003883,0.024499992621045505,0.9634053011411113,-0.0,-0.0,1.0,0.0
0.9884011788982757,0.014951778232088127,0.019085420755489427,0.9884011788982757,NORMAL,0.9896547195169588,0.013750051077209557,0.012959290546394905,0.9896547195169588,0.9811538851133059,0.024781080871591303,0.02954748895437181,0.9811538851133059,0.9822830445111381,0.02358129338463152,0.023953379502020238,0.9822830445111381,0.9870368042057956,0.0169174185575919,0.021350150488187843,0.9870368042057956,0.9628348228804953,0.04472154978261436,0.02456614841824755,0.9628348228804953,-0.0,-0.0,1.0,0.0
0.9878887338325298,0.01559431174690972,0.020426005071325755,0.9878887338325298,NORMAL,0.9895439518716235,0.01387845590580726,0.013829056249910807,0.9895439518716235,0.9809874913543688,0.025013861665101694,0.02901882192492462,0.9809874913543688,0.9822830445111381,0.02358129338463152,0.023953379502020238,0.9822830445111381,0.9870368042057956,0.0169174185575919,0.019604025315004915,0.9870368042057956,0.962343100307532,0.04550033507941211,0.023974876972473642,0.962343100307532,-0.0,-0.0,1.0,0.0
0.98744152680078,0.016197834776198027,0.020593577403545144,0.98744152680078,NORMAL,0.9891151761630386,0.014367442419026334,0.014110888164506558,0.9891151761630386,0.9808396673302646,0.025209395985280908,0.029025186506168612,0.9808396673302646,0.9822830445111381,0.02358129338463152,0.023953379502020238,0.9822830445111381,0.986468733026448,0.017665800279130745,0.020705456637989055,0.986468733026448,0.9621519761675246,0.0457736921567007,0.02452523408846284,0.9621519761675246,-0.0,-0.0,1.0,0.0
0.9872512090917431,0.01648375576986433,0.02172704734957897,0.9872512090917431,NORMAL,0.9887134987426277,0.014882601375620325,0.014831707176195379,0.9887134987426277,0.9793730972201325,0.02778184845772956,0.03250248543185978,0.9793730972201325,0.9826864239545166,0.023072062383348312,0.023748781900637016,0.9826864239545166,0.9856088938260464,0.018906873573548047,0.02233631687392232,0.9856088938260464,0.9602525488371608,0.04844728914399785,0.02674175850951337,0.9602525488371608,-0.0,-0.0,1.0,0.0
0.9867843585691403,0.017039360779088387,0.022523935680958646,0.9867843585691403,NORMAL,0.9890781197842693,0.014437999178190799,0.014276590466759054,0.9890781197842693,0.978245924685171,0.029453821008323652,0.03501176912439712,0.978245924685171,0.982237321977717,0.023670239358522516,0.025536416139251245,0.982237321977717,0.9848993048446482,0.019757233907476374,0.023976102303879296,0.9848993048446482,0.9600292923671241,0.04878610388726163,0.027629302971763494,0.9600292923671241,-0.0,-0.0,1.0,0.0
0.9862053326415516,0.01791502006690026,0.022758114622972198,0.9862053326415516,NORMAL,0.9887639020012281,0.01487318823121636,0.013681747277593505,0.9887639020012281,0.9776083999443841,0.030325347773850046,0.0358497877963901,0.9776083999443841,0.9823485589774814,0.02354367453516258,0.02417958170046367,0.9823485589774814,0.9852639258862899,0.019316193300047513,0.024924445836716658,0.9852639258862899,0.9601777427642118,0.04859811006108897,0.0272558512273479,0.9601777427642118,-0.0,-0.0,1.0,0.0
0.9862053326415516,0.01791502006690026,0.022758114622972198,0.9862053326415516,NORMAL,0.989442740825911,0.013993065131295706,0.01277150562156792,0.989442740825911,0.9770403287650362,0.031058598588012125,0.03661953599672939,0.9770403287650362,0.9814757195770931,0.02469588320065601,0.027023421621962036,0.9814757195770931,0.98526392588629,0.019316193300047874,0.02561211235234844,0.98526392588629,0.9590179716983074,0.04998474387536461,0.029991930130229143,0.9590179716983074,-0.0,-0.0,1.0,0.0
0.9862053326415514,0.017915020066899174,0.023646552297541985,0.9862053326415514,NORMAL,0.9892111090329779,0.01426823857985203,0.01311444647650631,0.9892111090329779,0.9767595154922234,0.03141768714819098,0.03487192565042208,0.9767595154922234,0.9812618199206009,0.02493352428507679,0.028108716611062158,0.9812618199206009,0.9848674372575718,0.019744320882941386,0.025523987781271414,0.9848674372575718,0.9590179716983074,0.04998474387536461,0.029991930130229143,0.9590179716983074,-0.0,-0.0,1.0,0.0
0.9864183297678477,0.017675045360644567,0.023079012262298894,0.9864183297678477,NORMAL,0.9896779595555806,0.013709920443036474,0.012367284134813472,0.9896779595555806,0.9784040408035007,0.029186394867123735,0.03213634154453591,0.9784040408035007,0.9803889805202125,0.02608317455576671,0.028056405090796273,0.9803889805202125,0.9846358054646387,0.020016838585903095,0.02593324148744297,0.9846358054646387,0.9590179716983074,0.04998474387536461,0.029991930130229143,0.9590179716983074,-0.0,-0.0,1.0,0.0
0.9871993980734916,0.01668632408634838,0.0214963703568146,0.9871993980734916,NORMAL,0.9899858711165681,0.013367415554475577,0.01171826163537979,0.9899858711165681,0.9791624296918855,0.028169840119772725,0.03060568157435358,0.9791624296918855,0.9807871491854931,0.025658890169921546,0.02707797733111233,0.9807871491854931,0.9843549921918259,0.02038200682084135,0.0257432665087432,0.9843549921918259,0.9592729007445981,0.049686833282961564,0.030343339272064406,0.9592729007445981,-0.0,-0.0,1.0,0.0
0.9881707840881726,0.015409727528324578,0.01920089961126211,0.9881707840881726,NORMAL,0.9904904066086464,0.012643693090504638,0.010923825190993662,0.9904904066086464,0.9793102537159899,0.02797510005506503,0.030619825152094063,0.9793102537159899,0.9813576274461093,0.024917973684462864,0.02591819797412764,0.9813576274461093,0.9851360604974698,0.019397558579396415,0.024664645318984504,0.9851360604974698,0.9601457401449864,0.048584410480948435,0.02797614871825277,0.9601457401449864,-0.0,-0.0,1.0,0.0
0.9881707840881728,0.015409727528324584,0.018525657822775723,0.9881707840881728,NORMAL,0.9910028516743923,0.011997899210161875,0.010753499963569202,0.9910028516743923,0.9810910416091632,0.024974882557819066,0.026388621128448086,0.9810910416091632,0.9813576274461093,0.024917973684462864,0.02591819797412764,0.9813576274461093,0.9849044287045369,0.019670234695390535,0.024583634757993564,0.9849044287045369,0.9608609455405459,0.04802982161269616,0.02821499681372232,0.9608609455405459,-0.0,-0.0,1.0,0.0
0.9872062242801068,0.016590306929252792,0.0204934516784792,0.9872062242801068,NORMAL,0.9910028516743923,0.011997899210161147,0.010759284051360205,0.9910028516743923,0.9819508808095649,0.023744962726109143,0.024868123427112764,0.9819508808095649,0.9813576274461093,0.024917973684462864,0.02591819797412764,0.9813576274461093,0.9838568353635969,0.02092272641429616,0.027049512901745044,0.9838568353635969,0.9606283322569651,0.04828912777077957,0.028389122971888,0.9606283322569651,-0.0,-0.0,1.0,0.0
0.9873169919254418,0.01646251704072543,0.01999690217320501,0.9873169919254418,NORMAL,0.9915073871664707,0.011272722439450978,0.010465001610322789,0.9915073871664707,0.9823980878413149,0.023148313012125565,0.024513237918336254,0.9823980878413149,0.9813576274461093,0.024917973684462864,0.02591819797412764,0.9813576274461093,0.9836665176545597,0.021206672538259003,0.026891932040259383,0.9836665176545597,0.9617881033228692,0.04689791852712682,0.026602403149581164,0.9617881033228692,-0.0,-0.0,1.0,0.0
0.9871691679013378,0.016660641993142156,0.02064568192225872,0.9871691679013378,NORMAL,0.991374397917762,0.011443287839418814,0.0109902509968849,0.991374397917762,0.9826519412376216,0.02283616699959276,0.024254230234998304,0.9826519412376216,0.9814688644458738,0.024791668434335164,0.024766581501452386,0.9814688644458738,0.9831768698603853,0.022012856812442475,0.028241654718371343,0.9831768698603853,0.960657596526664,0.04816121502122924,0.02685133581080435,0.960657596526664,-0.0,-0.0,1.0,0.0
0.9861977818866565,0.017934681658198833,0.02228640338457334,0.9861977818866565,NORMAL,0.991374397917762,0.011443287839418814,0.0109902509968849,0.991374397917762,0.9826519412376213,0.022836166999592396,0.023873915770539978,0.9826519412376213,0.9803980457742586,0.02615151305749543,0.026327025491941537,0.9803980457742586,0.9830290458362811,0.022209295612732806,0.027321331708637774,0.9830290458362811,0.9606575965266642,0.04816121502122925,0.025408014312887323,0.9606575965266642,-0.0,-0.0,1.0,0.0
0.9858290273703997,0.018316859598850606,0.022994614522307062,0.9858290273703997,NORMAL,0.991374397917762,0.011443287839418814,0.0109902509968849,0.991374397917762,0.9823980878413149,0.023148313012125565,0.024258004481783436,0.9823980878413149,0.980276669490442,0.026295777765895582,0.026532502416471992,0.980276669490442,0.9832193635453184,0.021925732896774824,0.02722640027777113,0.9832193635453184,0.962290155561813,0.046519119015056315,0.02536278936276859,0.962290155561813,-0.0,-0.0,1.0,0.0
0.9848576413557185,0.01958749145857128,0.024973934169353125,0.9848576413557185,NORMAL,0.9916282513140685,0.011125184428500898,0.010409463146408162,0.9916282513140685,0.9816396989529299,0.02417225010572455,0.025595388992231738,0.9816396989529299,0.980276669490442,0.026295777765895582,0.026431094814545118,0.980276669490442,0.9828855022714242,0.022308857675583365,0.026938476341188598,0.9828855022714242,0.9645522152179009,0.04385203552092469,0.024735717086734086,0.9645522152179009,-0.0,-0.0,1.0,0.0
0.9838982983893203,0.02067835431859672,0.026340210875602923,0.9838982983893203,NORMAL,0.9909907265732816,0.012020946797396176,0.01085942270474651,0.9909907265732816,0.9804401647494644,0.025552889501956284,0.02549222820448939,0.9804401647494644,0.9813474881620574,0.024936265970584275,0.025702267638807716,0.9813474881620574,0.9823174310920765,0.023050891876150927,0.02845797103680716,0.9823174310920765,0.9643610910778933,0.04412638828161009,0.02437854447623502,0.9643610910778933,-0.0,-0.0,1.0,0.0
0.9832194595646373,0.02154882173715986,0.02729898671893966,0.9832194595646373,NORMAL,0.9908799589279464,0.012149722411070247,0.010529980747847592,0.9908799589279464,0.9804401647494644,0.025552889501956284,0.02549222820448939,0.9804401647494644,0.9814501508187852,0.024824932027129765,0.025749273277051038,0.9814501508187852,0.9816799063512892,0.0239303633519814,0.029326772267797438,0.9816799063512892,0.9643610910778933,0.04412638828161009,0.02437854447623502,0.9643610910778933,-0.0,-0.0,1.0,0.0
0.9830530658057003,0.02178265736047974,0.02673808662397027,0.9830530658057003,NORMAL,0.9910929560542427,0.011907334583062782,0.010511575560779517,0.9910929560542427,0.9813254811698889,0.024600980107673618,0.024001298813707113,0.9813254811698889,0.9823298453503928,0.023745872947340423,0.025003363580069774,0.9823298453503928,0.9815135125923522,0.02416341766748995,0.029091039219695455,0.9815135125923522,0.965042806338274,0.043287337642563,0.02356049114729369,0.965042806338274,-0.0,-0.0,1.0,0.0
0.9830530658057003,0.02178265736047938,0.026544842876105847,0.9830530658057003,NORMAL,0.9907590947803486,0.012297022057802257,0.011251246257832031,0.9907590947803486,0.983216894038943,0.021825446073847777,0.02059812640013946,0.983216894038943,0.9821159456939006,0.023983937109834805,0.02618477935052594,0.9821159456939006,0.9821923514170353,0.023296319495734526,0.02748872813759941,0.9821923514170353,0.9654409750035547,0.04287712444696765,0.023003891055477454,0.9654409750035547,-0.0,-0.0,1.0,0.0
0.9825406207399546,0.02241806747105807,0.026719149843439274,0.9825406207399546,NORMAL,0.9911237158219902,0.01185052610817633,0.010881001559707138,0.9911237158219902,0.9833647180630473,0.021628910754552064,0.020356439917998494,0.9833647180630473,0.9823298453503928,0.023745872947340423,0.025516797386345654,0.9823298453503928,0.9827927377262253,0.02264623103019539,0.02736411624744813,0.9827927377262253,0.9645519072423657,0.043797711116442754,0.022950359452413183,0.9645519072423657,-0.0,-0.0,1.0,0.0
0.9832990096283394,0.021391803119704175,0.024306920816342,0.9832990096283394,NORMAL,0.9913775692182968,0.011532608899839727,0.010709685999233177,0.9913775692182968,0.9840980936209458,0.020809015580229323,0.019502386498114626,0.9840980936209458,0.98113108682324,0.025361290240166777,0.027479250760573067,0.98113108682324,0.9831944151466361,0.022137401464323452,0.026963357375484272,0.9831944151466361,0.9656227259139811,0.04248034237115724,0.02190312850098204,0.9656227259139811,-0.0,-0.0,1.0,0.0
0.9829422981603652,0.02190927985422141,0.025692004026331584,0.9829422981603652,NORMAL,0.9916092010112297,0.011256179151494057,0.010750634914139051,0.9916092010112297,0.9841762370053411,0.02073648512296516,0.019557007630683364,0.9841762370053411,0.979837011681588,0.027071240834203158,0.029385520437159095,0.979837011681588,0.9827472081148863,0.022735011934623833,0.02601673724940604,0.9827472081148863,0.9645706936182064,0.04368503433760828,0.022344203052046315,0.9645706936182064,-0.0,-0.0,1.0,0.0
0.9839136841750464,0.020643486346944375,0.02423236434875215,0.9839136841750464,NORMAL,0.9914984333658946,0.011385122247652982,0.011566951165913771,0.9914984333658946,0.9844300904016475,0.02042313054377469,0.018846104207452242,0.9844300904016475,0.9781855180427206,0.029314655640742447,0.029863819615625797,0.9781855180427206,0.982978839907819,0.02246367556374654,0.026340603016922124,0.982978839907819,0.9627573401090307,0.04600875234637599,0.024654686904032868,0.9627573401090307,-0.0,-0.0,1.0,0.0
0.9835994663920052,0.02107437256777582,0.02394997941414627,0.9835994663920052,NORMAL,0.9909366684086007,0.012046584755422609,0.012926311608750372,0.9909366684086007,0.9846204081106846,0.020138806201481656,0.019111527009086072,0.9846204081106846,0.9776709015995775,0.02994412971852027,0.02975175186288599,0.9776709015995775,0.9816902249988323,0.024176987442371626,0.028266124908755373,0.9816902249988323,0.9613615989935088,0.047609674813653795,0.025610670591187205,0.9613615989935088,-0.0,-0.0,1.0,0.0
0.9837324556407137,0.02090647101965706,0.023022530072704675,0.9837324556407137,NORMAL,0.9910696576573093,0.01187617697808704,0.013457554894685635,0.9910696576573093,0.9849346258937258,0.019707160348913864,0.01976446491436646,0.9849346258937258,0.9767912070679696,0.031012287121827655,0.032406582785078,0.9767912070679696,0.9812937363701142,0.024601541818401972,0.02839302135432311,0.9812937363701142,0.9613615989935088,0.047609674813653795,0.025610670591187205,0.9613615989935088,-0.0,-0.0,1.0,0.0
0.9844112944653967,0.02003509096782791,0.021993860772271723,0.9844112944653967,NORMAL,0.9898216209747503,0.01373397238676645,0.01622284766477984,0.9898216209747503,0.9830432130246717,0.022491767285177416,0.023374168284696486,0.9830432130246717,0.9775927551766288,0.03008804931225629,0.03208398056631445,0.9775927551766288,0.980055825320137,0.02612593733168806,0.030967980786831377,0.980055825320137,0.9621232013941324,0.046623979924131184,0.023713639467699575,0.9621232013941324,-0.0,-0.0,1.0,0.0
0.9842209767563594,0.02031937331130204,0.02324669835106856,0.9842209767563594,NORMAL,0.9902688280065002,0.01312784680446476,0.016903182044965655,0.9902688280065002,0.9827623997518589,0.022855619247206253,0.023716373908596815,0.9827623997518589,0.9759412615377614,0.03232101117000342,0.03521051471819599,0.9759412615377614,0.9794981597741497,0.0266999127726573,0.03207672570885402,0.9794981597741497,0.9635189425096543,0.04502025169377922,0.023038260424964423,0.9635189425096543,-0.0,-0.0,1.0,0.0
0.9840374852539375,0.020507863168874155,0.02351199664542304,0.9840374852539375,NORMAL,0.9899880147336872,0.013497123405665133,0.017085401080901588,0.9899880147336872,0.9842250369123278,0.02055634332292968,0.02072101090944702,0.9842250369123278,0.9748451656673363,0.03380539466537056,0.03661268690542147,0.9748451656673363,0.9789808069978337,0.02726611863125514,0.03292564414856725,0.9789808069978337,0.9631527764635989,0.04544231890595884,0.023508369775803194,0.9631527764635989,-0.0,-0.0,1.0,0.0
0.9840374852539375,0.020507863168874155,0.02351199664542304,0.9840374852539375,NORMAL,0.9912360514162464,0.011638711682395329,0.014345894416469872,0.9912360514162464,0.9854629479623049,0.019018185965776275,0.018997600839653718,0.9854629479623049,0.9744469970020555,0.0342236535206569,0.03739576346674644,0.9744469970020555,0.9799453668058995,0.026106155906936445,0.031917938721420035,0.9799453668058995,0.9631527764635989,0.04544231890595884,0.023548117133460847,0.9631527764635989,-0.0,-0.0,1.0,0.0
0.9840374852539375,0.020507863168874155,0.02351199664542304,0.9840374852539375,NORMAL,0.9912360514162464,0.011638711682395329,0.013347682755067668,0.9912360514162464,0.9854629479623049,0.019018185965776275,0.018997600839653718,0.9854629479623049,0.975914221632135,0.03218247449850518,0.03448536457506187,0.975914221632135,0.9802310877892827,0.025808639769010384,0.03112384599529007,0.9802310877892827,0.9636216051663821,0.04491317578923138,0.023289341499961667,0.9636216051663821,-0.0,-0.0,1.0,0.0
0.9847160149475227,0.019782151678196896,0.02204409124881012,0.9847160149475227,NORMAL,0.9910044196233134,0.011914946014359022,0.014454485396868546,0.9910044196233134,0.9854629479623049,0.019018185965776275,0.018997600839653718,0.9854629479623049,0.9771129801592879,0.030584345178954905,0.03221488764323574,0.9771129801592879,0.9815197026982694,0.02410011046166776,0.029212637398996898,0.9815197026982694,0.9645106729275709,0.043994583238172895,0.022885648059186078,0.9645106729275709,-0.0,-0.0,1.0,0.0
0.9858708924646257,0.01832270973195931,0.020373346356486417,0.9858708924646257,NORMAL,0.9910044196233135,0.011914946014359024,0.014087524100493048,0.9910044196233135,0.985859436591023,0.01858949785617203,0.01819305547608167,0.985859436591023,0.97739498331885,0.030224120227424617,0.031742097978829965,0.97739498331885,0.9816304703436047,0.023973925599415663,0.028244288849822094,0.9816304703436047,0.9651923881879516,0.04315529971379251,0.021696130950321184,0.9651923881879516,-0.0,-0.0,1.0,0.0
0.9863180994963755,0.01772113346606645,0.020163380545098288,0.9863180994963755,NORMAL,0.9905917874546617,0.012560278203359948,0.013869400136872559,0.9905917874546617,0.9864598229002133,0.01793401117263297,0.01760146331334277,0.9864598229002133,0.9780766985792307,0.029363203498419147,0.030113405679173675,0.9780766985792307,0.981376616947298,0.024285440549430486,0.02882195507676473,0.981376616947298,0.9647432862111521,0.04373309932064191,0.02274603303789536,0.9647432862111521,-0.0,-0.0,1.0,0.0
0.9853587565299777,0.01881548744615403,0.02144312149524904,0.9853587565299777,NORMAL,0.9909564084963033,0.012113956053477013,0.013168946840908564,0.9909564084963033,0.9870215878575072,0.017278949896965348,0.016922499847504265,0.9870215878575072,0.977974035922503,0.029473660486238895,0.031024982301223036,0.977974035922503,0.9794971172406212,0.026748207042908007,0.03115783930259257,0.9794971172406212,0.9658737930073572,0.04245876657775446,0.02193614429223491,0.9658737930073572,-0.0,-0.0,1.0,0.0
0.9843873705152966,0.02008500378834963,0.02250589052538326,0.9843873705152966,NORMAL,0.9916832584479964,0.011030757335832161,0.011341848924437688,0.9916832584479964,0.9872754412538136,0.016963769485752928,0.01621988304819604,0.9872754412538136,0.9761699252066381,0.032128269592053234,0.03212697580885488,0.9761699252066381,0.978227673329603,0.02818192649143697,0.031881981868371045,0.978227673329603,0.9644616788814777,0.04385286943803512,0.022351795228635035,0.9644616788814777,-0.0,-0.0,1.0,0.0
0.9845351945394009,0.01988796537038929,0.021925213097677435,0.9845351945394009,NORMAL,0.9918310824721007,0.010830864565802095,0.011523624110336276,0.9918310824721007,0.9880022912055065,0.01588822805528083,0.015622153192068187,0.9880022912055065,0.9760214748095505,0.03232214791675141,0.03239579043468757,0.9760214748095505,0.9777103205532869,0.028746577142134952,0.03196894838632568,0.9777103205532869,0.965532497553093,0.04253569412162161,0.02048623158392062,0.965532497553093,-0.0,-0.0,1.0,0.0
0.9850397300314792,0.019171642287609564,0.02060108666720851,0.9850397300314792,NORMAL,0.9920627142650337,0.010554142042594796,0.01188654490158833,0.9920627142650337,0.9891571687226096,0.014419215124194456,0.014320917676274008,0.9891571687226096,0.976661700926358,0.031451431712184195,0.03061316852622948,0.976661700926358,0.9772057850612085,0.029452479785998315,0.0323948377014191,0.9772057850612085,0.9665412322355939,0.04163120458967574,0.020551725405618275,0.9665412322355939,-0.0,-0.0,1.0,0.0
0.9850397300314792,0.01917164228760884,0.02162488703480043,0.9850397300314792,NORMAL,0.9916610368446229,0.011072415484315236,0.01252876308621976,0.9916610368446229,0.9890093446985053,0.014618023940431015,0.014869625034527713,0.9890093446985053,0.9771683742806908,0.030745335841337335,0.029732814164921573,0.9771683742806908,0.9784538217437677,0.027638852071354802,0.03073575409976973,0.9784538217437677,0.9677843886713762,0.0401455619483121,0.021810556704745535,0.9677843886713762,-0.0,-0.0,1.0,0.0
0.9848733362725421,0.019406325939441065,0.022281684216955575,0.9848733362725421,NORMAL,0.9909821980199401,0.011956555480909499,0.013778274681595013,0.9909821980199401,0.9887554913021991,0.014934375432194474,0.01594230642471316,0.9887554913021991,0.9775345403267462,0.030311122760823882,0.02856722256131652,0.9775345403267462,0.9790913464845549,0.026764787512661,0.029342115204918057,0.9790913464845549,0.9671026734109953,0.04098938457335173,0.022556671489517562,0.9671026734109953,-0.0,-0.0,1.0,0.0
0.9838401958280134,0.020563363438733627,0.024173441374364987,0.9838401958280134,NORMAL,0.991691787001338,0.01109518609744393,0.012315022618849637,0.991691787001338,0.9891571687226096,0.014419215124194456,0.01556378180206921,0.9891571687226096,0.9780540852758434,0.029746398952713464,0.028627958227343517,0.9780540852758434,0.9794930239049654,0.026259633011473955,0.029586645047844272,0.9794930239049654,0.9685698980410749,0.03897461026435414,0.019088222681685744,0.9685698980410749,-0.0,-0.0,1.0,0.0
0.9844082670073613,0.019818702031339303,0.023112530964097926,0.9844082670073613,NORMAL,0.9918396110254422,0.010895301184206337,0.012023702570666763,0.9918396110254422,0.9894713865056509,0.01398370506738423,0.014789356583026424,0.9894713865056509,0.9790389441465037,0.028377936583562552,0.02752466851860861,0.9790389441465037,0.9794930239049656,0.026259633011473597,0.02894874731626619,0.9794930239049656,0.9695385449669716,0.03783695991549907,0.019028308140294405,0.9695385449669716,-0.0,-0.0,1.0,0.0
0.9844082670073613,0.019818702031339303,0.023504554611013757,0.9844082670073613,NORMAL,0.991525393242401,0.011332853582884184,0.012176833573298282,0.991525393242401,0.990347369245986,0.012888088874648334,0.013832295130421054,0.990347369245986,0.9781661047461154,0.02952180877781511,0.0300002466977914,0.9781661047461154,0.9809527855250207,0.024539093323352766,0.02735392690208881,0.9809527855250207,0.9700531614101147,0.03721717174677956,0.019386295560715937,0.9700531614101147,-0.0,-0.0,1.0,0.0
0.9834140837211085,0.021340939972306742,0.024483413244531745,0.9834140837211085,NORMAL,0.991525393242401,0.011332853582884184,0.012408969796498283,0.991525393242401,0.990180975487049,0.013125127817745554,0.014427137773489243,0.990180975487049,0.9781661047461154,0.02952180877781511,0.0300002466977914,0.9781661047461154,0.9813999925567706,0.02394343381916672,0.0268199953729925,0.9813999925567706,0.9700531614101147,0.03721717174677956,0.0190084061293489,0.9700531614101147,-0.0,-0.0,1.0,0.0
0.9827352448964256,0.022210507278346524,0.025894095364359285,0.9827352448964256,NORMAL,0.991525393242401,0.011332853582884548,0.012107482507517562,0.991525393242401,0.9903287995111533,0.012925855470088995,0.015791144166817348,0.9903287995111533,0.9773026221592712,0.030744629008277177,0.030665575610194423,0.9773026221592712,0.9813999925567706,0.02394343381916672,0.026958987090253846,0.9813999925567706,0.9707348766704954,0.03636794962332932,0.018631364749389256,0.9707348766704954,-0.0,-0.0,1.0,0.0
0.9828830689205298,0.022014129358231643,0.025238808442456025,0.9828830689205298,NORMAL,0.9902773565598417,0.01319220200430132,0.012806191249627386,0.9902773565598417,0.9896192105297552,0.013784706580083126,0.017317829846803197,0.9896192105297552,0.9766209068988905,0.031603867880067534,0.0310647205987548,0.9766209068988905,0.9826480292393298,0.022114704073181675,0.02510441373550266,0.9826480292393298,0.9701007379555971,0.03699507665200873,0.01894707221330162,0.9701007379555971,-0.0,-0.0,1.0,0.0
0.9835619077452127,0.02114429109710984,0.023828126322628485,0.9835619077452127,NORMAL,0.9900802126441898,0.013406364882432851,0.013651458588761302,0.9900802126441898,0.9888608216413702,0.014823613538407143,0.0190950082982944,0.9888608216413702,0.9767321438986551,0.031478961051311496,0.030324066594756692,0.9767321438986551,0.9828703436989443,0.021762243218279957,0.025076085206747253,0.9828703436989443,0.9695302596949811,0.03772005293251578,0.019535567888908256,0.9695302596949811,-0.0,-0.0,1.0,0.0
0.9835619077452129,0.021144291097109844,0.02385139564369161,0.9835619077452129,NORMAL,0.989678535223779,0.013922427954163348,0.014496485412782863,0.989678535223779,0.9885800083685575,0.015191872784295095,0.0183445104134588,0.9885800083685575,0.9770190755641712,0.031183545905209404,0.028908915261247024,0.9770190755641712,0.9833175507306944,0.021164112700434716,0.025249114857549663,0.9833175507306944,0.9701007379555974,0.036995076652008026,0.020841263865232145,0.9701007379555974,-0.0,-0.0,1.0,0.0
0.9844472241656372,0.020185238667087727,0.022837141228843255,0.9844472241656372,NORMAL,0.988920146335394,0.014961292970941915,0.016369708694123224,0.988920146335394,0.9890272154003075,0.014587182258843269,0.017853352726090663,0.9890272154003075,0.9780174714914673,0.029677690376530317,0.027831304106175177,0.9780174714914673,0.9837647577624442,0.02056542912351314,0.023142072154541695,0.9837647577624442,0.9692278985552091,0.03812027898547688,0.022309831312220987,0.9692278985552091,-0.0,-0.0,1.0,0.0
0.985008989122931,0.019532839447050428,0.02248692661183343,0.985008989122931,NORMAL,0.9888093786900589,0.015089464524919726,0.017013311680493214,0.9888093786900589,0.9890272154003075,0.014587182258843633,0.017354926526078538,0.9890272154003075,0.9779148088347396,0.02978810728992631,0.028324362863425778,0.9779148088347396,0.9845170849341599,0.019773889445919995,0.02205749687811637,0.9845170849341599,0.9694511550252456,0.03777554544264132,0.02104381358720601,0.9694511550252456,-0.0,-0.0,1.0,0.0
0.985008989122931,0.019532839447050428,0.02248692661183343,0.985008989122931,NORMAL,0.9888093786900587,0.015089464524919723,0.016771625198352246,0.9888093786900587,0.9890272154003075,0.014587182258843633,0.016646900549082747,0.9890272154003075,0.9770419694343511,0.030929348107137676,0.028981597667915793,0.9770419694343511,0.984707402643197,0.019489413779608417,0.02299285978693153,0.984707402643197,0.9699002570020454,0.03719196950697659,0.020786126630418345,0.9699002570020454,-0.0,-0.0,1.0,0.0
0.9856878279476139,0.018659345364335073,0.021193279362854298,0.9856878279476139,NORMAL,0.989256585721809,0.014484584258645652,0.015573575507616472,0.989256585721809,0.9892402125266035,0.014345782255865209,0.016771100849800526,0.9892402125266035,0.9775486427886839,0.030222694015065825,0.027388550032606217,0.9775486427886839,0.9851546096749471,0.018889096636934034,0.022151932857178903,0.9851546096749471,0.9703036364454238,0.03669506161208352,0.02024943680787928,0.9703036364454238,-0.0,-0.0,1.0,0.0
0.98490675964197,0.019644947622402525,0.02235589352052529,0.98490675964197,NORMAL,0.9893774498694066,0.014337779790354537,0.015487169776780833,0.9893774498694066,0.9893351269612946,0.014245181234125411,0.016730644655500504,0.9893351269612946,0.9765502468613878,0.03172724125549547,0.02933581063330648,0.9765502468613878,0.9851546096749471,0.018889096636934034,0.02323335921393386,0.9851546096749471,0.9709853517058048,0.035845240043064136,0.019136970791623964,0.9709853517058048,-0.0,-0.0,1.0,0.0
0.9843943145762242,0.020282711558443176,0.02311912258397361,0.9843943145762242,NORMAL,0.9901358387577918,0.013297946194976205,0.014031407637029073,0.9901358387577918,0.9887733620040008,0.014903547520060826,0.01752232985187581,0.9887733620040008,0.9776821955511583,0.03005676515041298,0.027841209818307053,0.9776821955511583,0.9851546096749471,0.018889096636934034,0.02323335921393386,0.9851546096749471,0.9729233751511628,0.03361315001201058,0.018669037330783005,0.9729233751511628,-0.0,-0.0,1.0,0.0
0.985353657542622,0.019190893405302795,0.021379193869932644,0.985353657542622,NORMAL,0.9898216209747503,0.01373397238676645,0.015043378365877083,0.9898216209747503,0.988205290824653,0.01565443792765866,0.018387961673242893,0.988205290824653,0.9778035718349749,0.02991336638818562,0.02695089921451683,0.9778035718349749,0.9856719624512631,0.018314741664711896,0.022035042710146065,0.9856719624512631,0.974389030294586,0.03204239416950932,0.018173864957459727,0.974389030294586,-0.0,-0.0,1.0,0.0
0.9863250435573033,0.017919211809924784,0.01979933704851241,0.9863250435573033,NORMAL,0.9893547704521475,0.014292362140904898,0.015505169067579509,0.9893547704521475,0.9883261549722508,0.0155079362952422,0.017566458215808368,0.9883261549722508,0.9782069512783533,0.02940915737803991,0.026190313680298182,0.9782069512783533,0.9861764979433414,0.017596763120632353,0.02119948267177961,0.9861764979433414,0.9754598489662011,0.030697700052482547,0.018855034947530974,0.9754598489662011,-0.0,-0.0,1.0,0.0
0.9876838478851977,0.015945492362980415,0.018142843418197004,0.9876838478851977,NORMAL,0.9886759316274645,0.015172199867904142,0.01612356414131224,0.9886759316274645,0.9876473161475681,0.016386003306847013,0.018470491508581485,0.9876473161475681,0.9776874063292564,0.029974153553110613,0.027073261293486146,0.9776874063292564,0.9858956846705287,0.017963209878578457,0.02330198789874645,0.9858956846705287,0.9752927501489634,0.030928600866109296,0.01953183702433966,0.9752927501489634,-0.0,-0.0,1.0,0.0
0.9878047120327954,0.015799105662833393,0.018552425788008628,0.9878047120327954,NORMAL,0.9895450881611844,0.014005396971251253,0.01470546340081313,0.9895450881611844,0.9872826951059261,0.01682922752398931,0.018760430337508998,0.9872826951059261,0.9772568137744485,0.030450940388069777,0.02749409743952436,0.9772568137744485,0.985641831274222,0.018277680156714188,0.02346514729083743,0.985641831274222,0.9757418521257633,0.030338147031922627,0.020202732757470743,0.9757418521257633,-0.0,-0.0,1.0,0.0
0.9887760980474765,0.01452083452211117,0.016951747686071342,0.9887760980474765,NORMAL,0.9891883766932104,0.014528922946611962,0.0161677905878153,0.9891883766932104,0.9881290543680747,0.015494791624066594,0.017749290211996595,0.9881290543680747,0.9772568137744485,0.030450940388069777,0.02749409743952436,0.9772568137744485,0.9866011742406201,0.017182478119290034,0.02193368117862541,0.9866011742406201,0.9757418521257633,0.030338147031922627,0.021737429000287783,0.9757418521257633,-0.0,-0.0,1.0,0.0
0.9886282740233723,0.014719549883161692,0.016842054546282452,0.9886282740233723,NORMAL,0.9895025944762518,0.014093433713743391,0.016084101786567464,0.9895025944762518,0.9885307317884855,0.014980193068410133,0.0169274914785578,0.9885307317884855,0.9779867435988181,0.02939404054944635,0.02806816048931542,0.9779867435988181,0.9872015605498103,0.016525625311508352,0.021303951058447377,0.9872015605498103,0.9769797831777983,0.029035522105210605,0.020888295109851462,0.9769797831777983,-0.0,-0.0,1.0,0.0
0.9886282740233723,0.014719549883161692,0.017436799146045845,0.9886282740233723,NORMAL,0.9896234586238496,0.013946544084888945,0.016257316943014098,0.9896234586238496,0.9890924967457793,0.014322035955190692,0.016696294712331056,0.9890924967457793,0.9777318145525271,0.029703564430966087,0.02904768555941094,0.9777318145525271,0.9875094721107974,0.016184876779241564,0.020970317373941817,0.9875094721107974,0.9780057495053044,0.027974654536704405,0.02089915606426068,0.9780057495053044,-0.0,-0.0,1.0,0.0
0.9887946677823092,0.014483157853622234,0.017680222126724144,0.9887946677823092,NORMAL,0.9896234586238496,0.013946544084888945,0.016257316943014098,0.9896234586238496,0.9895212724543643,0.013833041250747082,0.015698264667399098,0.9895212724543643,0.9786046539529154,0.0285603852881458,0.027899652516971886,0.9786046539529154,0.9879763226334003,0.01562844788854722,0.0201021093225916,0.9879763226334003,0.9788314704391455,0.02713272855035955,0.019894164860740193,0.9788314704391455,-0.0,-0.0,1.0,0.0
0.987667495247348,0.016187005717266355,0.018824730426688262,0.987667495247348,NORMAL,0.9896234586238496,0.013946544084888945,0.016257316943014098,0.9896234586238496,0.9894004083067666,0.013979929222171077,0.01576742926849573,0.9894004083067666,0.9793345837772851,0.027500556038284173,0.02659365142866559,0.9793345837772851,0.9878099288744633,0.015864447318123667,0.020327821607754544,0.9878099288744633,0.9778721967428301,0.028140925363747717,0.02030345670762615,0.9778721967428301,-0.0,-0.0,1.0,0.0
0.9873532774643067,0.016621004379951666,0.019056704325827335,0.9873532774643067,NORMAL,0.9896234586238496,0.013946544084888945,0.017007692018858756,0.9896234586238496,0.9898476153385166,0.013374177909512293,0.015323296637818265,0.9898476153385166,0.9788279104229521,0.028209967366647968,0.02750186547457023,0.9788279104229521,0.9887744886825293,0.014682418079422664,0.01937874169253293,0.9887744886825293,0.9775566475285047,0.028567629017573266,0.020462725501876285,0.9775566475285047,-0.0,-0.0,1.0,0.0
0.9876340907371198,0.016253619152439606,0.017768847001096173,0.9876340907371198,NORMAL,0.9882938107120892,0.01609920052359632,0.01784331207872826,0.9882938107120892,0.9897146260898078,0.013544170342604715,0.015161632880639469,0.9897146260898078,0.9783212370686193,0.02891862953640759,0.02808510930904109,0.9783212370686193,0.988907477931238,0.01451274365397003,0.019515617461383986,0.988907477931238,0.9775566475285045,0.028567629017572184,0.0190352454576237,0.9775566475285045,-0.0,-0.0,1.0,0.0
0.9882487652838267,0.015498689859223315,0.016968221654031636,0.9882487652838267,NORMAL,0.9877257395327413,0.01684903097178574,0.01920895927496849,0.9877257395327413,0.9901618331215578,0.012938025828268255,0.014399406503307257,0.9901618331215578,0.978770339045419,0.028325332087998065,0.028361953725981142,0.978770339045419,0.9894120134233164,0.0137904083271181,0.0189914888978703,0.9894120134233164,0.9775566475285047,0.02856762901757255,0.01849684551781689,0.9775566475285047,-0.0,-0.0,1.0,0.0
0.9888168364631745,0.01474767611682204,0.015623147525141906,0.9888168364631745,NORMAL,0.98785872878145,0.016679832396128524,0.019456949132383786,0.98785872878145,0.9906286836441605,0.012378531233649757,0.014363007076026231,0.9906286836441605,0.9791056149857278,0.02794521952877952,0.027603449331010853,0.9791056149857278,0.9894120134233162,0.013790408327118099,0.017954091895725027,0.9894120134233162,0.9775566475285047,0.02856762901757255,0.01849684551781689,0.9775566475285047,-0.0,-0.0,1.0,0.0
0.9886838472144657,0.01491730303347085,0.016158346665389737,0.9886838472144657,NORMAL,0.9875779155086374,0.017047182154417608,0.019324703501191035,0.9875779155086374,0.9897688444437591,0.013629561575046535,0.01615564047648014,0.9897688444437591,0.9794148312567195,0.02761034766770606,0.027122054959745963,0.9794148312567195,0.989264189399212,0.013989363429521767,0.019407266590314644,0.989264189399212,0.9775566475285047,0.02856762901757255,0.01849684551781689,0.9775566475285047,-0.0,-0.0,1.0,0.0
0.9886838472144657,0.01491730303347085,0.016158346665389737,0.9886838472144657,NORMAL,0.9874570513610393,0.017193381607628434,0.019904768835333844,0.9874570513610393,0.9889877761381148,0.014623339176764356,0.017629497557136872,0.9889877761381148,0.9791915747866826,0.027961120150696888,0.0284162566923711,0.9791915747866826,0.9886138473741873,0.014737783469281148,0.01974534606016003,0.9886138473741873,0.9774230947660303,0.028733738961327908,0.01777281273255624,0.9774230947660303,-0.0,-0.0,1.0,0.0
0.9886838472144657,0.01491730303347085,0.016158346665389737,0.9886838472144657,NORMAL,0.9874570513610393,0.017193381607628434,0.019904768835333844,0.9874570513610393,0.9892007732644112,0.014381956835574817,0.017438793607002765,0.9892007732644112,0.9789683183166459,0.028311729810909445,0.030577683420084222,0.9789683183166459,0.9893949156798312,0.013744480460528403,0.017493609535872295,0.9893949156798312,0.9768416153387484,0.02959609373127272,0.0183257589012665,0.9768416153387484,-0.0,-0.0,1.0,0.0
0.9889980649975069,0.014482163989704443,0.016063732884773828,0.9889980649975069,NORMAL,0.9875779155086372,0.017047182154417605,0.020102946260796405,0.9875779155086372,0.9894815865372241,0.014013231076989844,0.0173851415464027,0.9894815865372241,0.9788570813168814,0.0284372989194639,0.030257678300822433,0.9788570813168814,0.9896265474727644,0.013469132032831425,0.01648732603583078,0.9896265474727644,0.9765323990677569,0.029929411051991678,0.017497069055112793,0.9765323990677569,-0.0,-0.0,1.0,0.0
0.9885963875770962,0.014997213951058096,0.018043232819694967,0.9885963875770962,NORMAL,0.9878317689049436,0.01673175955702633,0.01937797609791363,0.9878317689049436,0.988415286087852,0.015393348084488178,0.019657701955817362,0.988415286087852,0.9794385607441634,0.027572404985135752,0.028399422392402753,0.9794385607441634,0.9892698360047901,0.013992895248710665,0.01730884355485495,0.9892698360047901,0.9769357785111353,0.0294258959852666,0.01643498947160332,0.9769357785111353,-0.0,-0.0,1.0,0.0
0.9876370446106979,0.01609682112368232,0.01962283795493211,0.9876370446106979,NORMAL,0.9877109047573458,0.016878036260263237,0.019762354578054368,0.9877109047573458,0.9882674620637478,0.015591858847025046,0.01985201067313528,0.9882674620637478,0.9809073955197192,0.02528215975469333,0.028082022581929458,0.9809073955197192,0.989782281070536,0.013348611780451998,0.015560442422996434,0.989782281070536,0.9767988799448181,0.02953952272407262,0.01679083316482285,0.9767988799448181,-0.0,-0.0,1.0,0.0
0.9880387220311089,0.01558272981458526,0.01858060263150384,0.9880387220311089,NORMAL,0.987060562732321,0.017623349490378915,0.02186559942184498,0.987060562732321,0.9885816798467888,0.01515712147151526,0.018890091749982706,0.9885816798467888,0.9809073955197192,0.02528215975469333,0.028082022581929458,0.9809073955197192,0.9896715134252009,0.013477078483897044,0.01614555743874831,0.9896715134252009,0.9765243568717508,0.029767971334383907,0.0172369868510529,0.9765243568717508,-0.0,-0.0,1.0,0.0
0.9885963875770962,0.014997213951058096,0.01772355674552571,0.9885963875770962,NORMAL,0.987060562732321,0.017623349490379275,0.02207226307245762,0.987060562732321,0.988581679846789,0.015157121471514903,0.019181411798165578,0.988581679846789,0.9809073955197192,0.02528215975469333,0.028722720505077837,0.9809073955197192,0.9892698360047901,0.013992895248710665,0.017410980302397017,0.9892698360047901,0.9775951755433662,0.028417685492549267,0.016284709711503323,0.9775951755433662,-0.0,-0.0,1.0,0.0
0.9884485635529919,0.015195821168222406,0.017746109236929566,0.9884485635529919,NORMAL,0.9869275734836124,0.017792280586400526,0.022713146141568132,0.9869275734836124,0.9877218406463875,0.016403103273401106,0.020943593927997987,0.9877218406463875,0.9809073955197192,0.02528215975469333,0.02848579363475988,0.9809073955197192,0.9901296752051919,0.012742822821591115,0.016363336053929558,0.9901296752051919,0.978176654970648,0.02755393778933648,0.01549981322760632,0.978176654970648,-0.0,-0.0,1.0,0.0
0.988715088588288,0.014924472819253123,0.01714554776973114,0.988715088588288,NORMAL,0.9858612730342403,0.019164670367621716,0.024896643300120137,0.9858612730342403,0.9878696646704914,0.016204826079932334,0.021741576936986123,0.9878696646704914,0.9803020433310073,0.026343999367521725,0.027511685612523654,0.9803020433310073,0.9902960689641289,0.012505732138398753,0.016528732428984214,0.9902960689641289,0.9779855308306403,0.027835594833007196,0.01708998041381431,0.9779855308306403,-0.0,-0.0,1.0,0.0
0.9883463340720308,0.015308783543655438,0.01824646136753527,0.9883463340720308,NORMAL,0.9856074196379339,0.019478819974845674,0.024832612952939235,0.9856074196379339,0.9875888513976786,0.016572315037030938,0.022406887890820078,0.9875888513976786,0.979317184460347,0.027716346064928246,0.028907265405243205,0.979317184460347,0.9898943915437182,0.01302227544795635,0.01622624296479369,0.9898943915437182,0.9779855308306403,0.027835594833007196,0.017130733675209016,0.9779855308306403,-0.0,-0.0,1.0,0.0
0.9886271473448438,0.014940646577063814,0.01759622409362338,0.9886271473448438,NORMAL,0.9863658085263187,0.018446985366659795,0.023062804404316187,0.9863658085263187,0.9874410273735743,0.01677047947421364,0.02351198097965584,0.9874410273735743,0.9791687340632591,0.02791154980675419,0.028907965047650752,0.9791687340632591,0.9893263203643705,0.013775116689313822,0.017787160910035568,0.9893263203643705,0.9779855308306403,0.027835594833007918,0.018025184726749372,0.9779855308306403,-0.0,-0.0,1.0,0.0
0.9894735066069922,0.013602738983690882,0.017496325587589928,0.9894735066069922,NORMAL,0.9858612730342403,0.019164670367622438,0.023455414654755914,0.9858612730342403,0.9875517950189096,0.016642678520557525,0.02299135659142512,0.9875517950189096,0.9791687340632593,0.027911549806754195,0.02884794497825269,0.9791687340632593,0.9892155527190354,0.01390347507629807,0.017666882619166442,0.9892155527190354,0.9778370804335527,0.028030503565309995,0.01712198333590722,0.9778370804335527,-0.0,-0.0,1.0,0.0
0.9896213306310965,0.013403683146059149,0.01681538541120544,0.9896213306310965,NORMAL,0.9865401118589231,0.0182901442214523,0.022652202161713667,0.9865401118589231,0.9882786449706025,0.015566592935782796,0.020638084175614118,0.9882786449706025,0.9789548344067669,0.028147904390061866,0.028128455760058093,0.9789548344067669,0.9894471845119683,0.013628214949952571,0.01633758357535727,0.9894471845119683,0.9767065736373475,0.02933854385755248,0.016344894677568802,0.9767065736373475,-0.0,-0.0,1.0,0.0
0.9900881811536993,0.012844720152752663,0.01627892203837337,0.9900881811536993,NORMAL,0.9868258328423063,0.01798826071145917,0.02180175043010903,0.9868258328423063,0.9879644271875613,0.016001063863018177,0.021092769787768452,0.9879644271875613,0.9799234813326636,0.026986524735528598,0.02722034561334945,0.9799234813326636,0.9898488619323791,0.01311215566845032,0.01600433572909863,0.9898488619323791,0.9755019566618331,0.0307081988662752,0.017020141741966994,0.9755019566618331,-0.0,-0.0,1.0,0.0
0.9898343277573927,0.013161879665392,0.01740971895896202,0.9898343277573927,NORMAL,0.9874633575830933,0.01710018081106158,0.0206229441556508,0.9874633575830933,0.9881867416471759,0.01564526683457521,0.020122734352298614,0.9881867416471759,0.9806051965930443,0.026121021157799146,0.027369755728604783,0.9806051965930443,0.9899966859564833,0.01291294952542836,0.01529892486794763,0.9899966859564833,0.9767398877138681,0.029406382316283865,0.016549833467077432,0.9767398877138681,-0.0,-0.0,1.0,0.0
0.9892662565780449,0.01391459417361987,0.019219863278240944,0.9892662565780449,NORMAL,0.9870161505513433,0.017702755783774816,0.02107111590988622,0.9870161505513433,0.9881867416471759,0.01564526683457521,0.020122734352298614,0.9881867416471759,0.9801363678902609,0.026669243157333475,0.028958211028415552,0.9801363678902609,0.9904438929882332,0.012306343717592627,0.014754029337035797,0.9904438929882332,0.9775109249950834,0.028655903184213988,0.015353331245318699,0.9775109249950834,-0.0,-0.0,1.0,0.0
0.9892662565780449,0.01391459417361987,0.019960454123795723,0.9892662565780449,NORMAL,0.9868952864037455,0.01784878941202581,0.020840995840425206,0.9868952864037455,0.9881867416471759,0.01564526683457521,0.020122734352298614,0.9881867416471759,0.9794546526298802,0.02753393396915709,0.02880880091316022,0.9794546526298802,0.990956338053979,0.011660406221445962,0.013508428841014454,0.990956338053979,0.9763365082704896,0.029909799563539376,0.015450674002753946,0.9763365082704896,-0.0,-0.0,1.0,0.0
0.98915548893271,0.014042928962350334,0.020073798542168744,0.98915548893271,NORMAL,0.9874570513610393,0.017193381607628434,0.019602964366803147,0.9874570513610393,0.9881867416471759,0.01564526683457521,0.020122734352298614,0.9881867416471759,0.9800948787466875,0.02665687831899378,0.02648525359014849,0.9800948787466875,0.990956338053979,0.011660406221445962,0.013767988361336874,0.990956338053979,0.9757550288432075,0.030770456627629703,0.01700556154739779,0.9757550288432075,-0.0,-0.0,1.0,0.0
0.9891554889327098,0.014042928962350331,0.020100647227649964,0.9891554889327098,NORMAL,0.9875678190063745,0.01706562595812232,0.018895348267722763,0.9875678190063745,0.988297509292511,0.015517240409282445,0.020062503914284005,0.988297509292511,0.9803274920302686,0.026386715465659568,0.025721019858883466,0.9803274920302686,0.9898648670606445,0.013188093358834462,0.01595589365556019,0.9898648670606445,0.9765166312438314,0.02975575160857105,0.01698337392682421,0.9765166312438314,-0.0,-0.0,1.0,0.0
0.9883744206270657,0.015035750490208118,0.021382708972208862,0.9883744206270657,NORMAL,0.9872111075384002,0.0175869799069762,0.019738174590623516,0.9872111075384002,0.9884878270015481,0.015230823597335042,0.019461148305059062,0.9884878270015481,0.9792566733586533,0.027743171704325022,0.027818271964415702,0.9792566733586533,0.9898648670606445,0.013188093358834462,0.016062657465101163,0.9898648670606445,0.9770737688685542,0.029241367835285973,0.01676602820089846,0.9770737688685542,-0.0,-0.0,1.0,0.0
0.9878619755613198,0.015678222644008043,0.022465042375179555,0.9878619755613198,NORMAL,0.9868464864967588,0.01802955937554222,0.01972264507916639,0.9868464864967588,0.9894592130162292,0.013951089417691017,0.018461573555543197,0.9894592130162292,0.9782880264327566,0.028902975509766293,0.029552108817864693,0.9782880264327566,0.9902215785286185,0.012663719132530196,0.015555105931678945,0.9902215785286185,0.9772408676857919,0.02900973755291468,0.015987915770855985,0.9772408676857919,-0.0,-0.0,1.0,0.0
0.9872244508205328,0.01656758786170289,0.024588244865068817,0.9872244508205328,NORMAL,0.986565673223946,0.018396138813088048,0.02049593689258187,0.986565673223946,0.9905506840095638,0.012424881222769876,0.01578117992953325,0.9905506840095638,0.976725485188178,0.031052114201495937,0.03269498821032303,0.976725485188178,0.9903879722875556,0.012426592756575712,0.015267464721138203,0.9903879722875556,0.9765282719714218,0.02984693124618603,0.016834388298491973,0.9765282719714218,-0.0,-0.0,1.0,0.0
0.986443382514889,0.017556428858822786,0.025909399665536743,0.986443382514889,NORMAL,0.9861368975153608,0.018881653249987647,0.021205283349292295,0.9861368975153608,0.9904399163642288,0.012553553284846457,0.01579377531239296,0.9904399163642288,0.9742840538720214,0.034761153191584966,0.03447317348754941,0.9742840538720214,0.9906687855603685,0.012056860379835166,0.015620245037938813,0.9906687855603685,0.977240867685792,0.029009737552914326,0.01625122140622348,0.977240867685792,-0.0,-0.0,1.0,0.0
0.986443382514889,0.017556428858822786,0.025909399665536743,0.986443382514889,NORMAL,0.9861368975153608,0.018881653249987647,0.021773816995655913,0.9861368975153608,0.9896417503150998,0.01350293330957954,0.016424636880102296,0.9896417503150998,0.9736309561604499,0.03548541172352107,0.03652640016124091,0.9736309561604499,0.9906687855603685,0.012056860379835893,0.015088135802331964,0.9906687855603685,0.9775564169001173,0.028583320406180664,0.015371060329181003,0.9775564169001173,-0.0,-0.0,1.0,0.0
0.9854719965002077,0.01882862466246968,0.027632298941725603,0.9854719965002077,NORMAL,0.9860261298700254,0.019009014232984477,0.022711669069643146,0.9860261298700254,0.9893078890412056,0.013891499951529364,0.017400223922256618,0.9893078890412056,0.9729010263360803,0.03653283816932153,0.03728794954727967,0.9729010263360803,0.9899899467356856,0.01293942534916604,0.016615745060494312,0.9899899467356856,0.9774195183338,0.028697142574673432,0.015662210263643752,0.9774195183338,-0.0,-0.0,1.0,0.0
0.9844056960508354,0.020197810055294935,0.02889568555046489,0.9844056960508354,NORMAL,0.9863340414310129,0.018669459073741644,0.02168106785447445,0.9863340414310129,0.9888952568725539,0.014534885507913332,0.018523935218029627,0.9888952568725539,0.9738858852067409,0.03517876470206533,0.03597603603805343,0.9738858852067409,0.9899899467356856,0.01293942534916604,0.016615745060494312,0.9899899467356856,0.9783950203909163,0.027442749984712637,0.015156592621053126,0.9783950203909163,-0.0,-0.0,1.0,0.0
0.9845960137598726,0.01991344939111781,0.028374920260710867,0.9845960137598726,NORMAL,0.9864549055786106,0.018523611534948997,0.020779149415975712,0.9864549055786106,0.9893621073951567,0.013976875738296507,0.018121855254824924,0.9893621073951567,0.9741951014777325,0.03484806856298248,0.034832961605051775,0.9741951014777325,0.9895427397039358,0.013545461931141896,0.016636311503561162,0.9895427397039358,0.9795937789180692,0.025834555312789245,0.013574198825770736,0.9795937789180692,-0.0,-0.0,1.0,0.0
0.9851577787171663,0.019260793072581217,0.027968199247022475,0.9851577787171663,NORMAL,0.9872132944669955,0.017490130252836755,0.01916243626543127,0.9872132944669955,0.9896478283785398,0.013672853041458757,0.01791861918246978,0.9896478283785398,0.9735133862173518,0.03570156529029984,0.03479371601120778,0.9735133862173518,0.9890302946381898,0.014189484105558016,0.01813919271417599,0.9890302946381898,0.9786089200474086,0.027206383403240306,0.014029926906091096,0.9786089200474086,-0.0,-0.0,1.0,0.0
0.9857724532638733,0.018509682505657918,0.027226277781146637,0.9857724532638733,NORMAL,0.9879228834483935,0.016636077129996332,0.018308990644265166,0.9879228834483935,0.9896478283785398,0.01367285304145912,0.018009073470101403,0.9896478283785398,0.9735133862173518,0.03570156529029984,0.034027491811629895,0.9735133862173518,0.989178118662294,0.013990606934971474,0.017459125753364273,0.989178118662294,0.9786089200474088,0.02720638340324067,0.012803387322852872,0.9786089200474088,-0.0,-0.0,1.0,0.0
0.9866416097975934,0.017349324272521126,0.02503243076882003,0.9866416097975934,NORMAL,0.9884353285141394,0.01599406122999278,0.017823369236048464,0.9884353285141394,0.9894161965856069,0.013948159845355464,0.018712748755632204,0.9894161965856069,0.9757705485247201,0.03218289751080687,0.03198856354314437,0.9757705485247201,0.9895427397039358,0.013545461931141896,0.016420336961622845,0.9895427397039358,0.9794724026342526,0.02597873561745154,0.011279001824316093,0.9794724026342526,-0.0,-0.0,1.0,0.0
0.9863336982366061,0.01768940097132859,0.025705799891610575,0.9863336982366061,NORMAL,0.988568317762848,0.01582462282703916,0.01667019577728974,0.988568317762848,0.9891304756022238,0.014252030012973592,0.01946781813567427,0.9891304756022238,0.9769303195906245,0.03074881938288033,0.0311415538865097,0.9769303195906245,0.9897965931002422,0.013228496215697624,0.016268418500191714,0.9897965931002422,0.9810626136936249,0.02354132879202918,0.010110919311061874,0.9810626136936249,-0.0,-0.0,1.0,0.0
0.9864666874853147,0.01752056052905615,0.025152612171018475,0.9864666874853147,NORMAL,0.988902179036742,0.015437006434324945,0.015874903901052055,0.988902179036742,0.9889174784759274,0.014493422734549061,0.020145632612813373,0.9889174784759274,0.9777318676992837,0.02982422663908977,0.030360932054192748,0.9777318676992837,0.9894001044715238,0.013661104131040087,0.016413913329769114,0.9894001044715238,0.9807470644792997,0.02397096364613432,0.010977746799136774,0.9807470644792997,-0.0,-0.0,1.0,0.0
0.9861587759243274,0.017860521547355308,0.025141469736490674,0.9861587759243274,NORMAL,0.9890351682854509,0.015267411068410711,0.015911260528143744,0.9890351682854509,0.9891491102688604,0.014218385675311187,0.019305115716904908,0.9891491102688604,0.9777318676992837,0.02982422663908977,0.030360932054192748,0.9777318676992837,0.9896809177443368,0.013292097853916789,0.015772457664863078,0.9896809177443368,0.9802782357765163,0.02452029640786797,0.01034128147150943,0.9802782357765163,-0.0,-0.0,1.0,0.0
0.9854788104211161,0.018955383327388418,0.02518448169368139,0.9854788104211161,NORMAL,0.9893997893270925,0.0148228025719884,0.015172541727410426,0.9893997893270925,0.9884702714441775,0.015098087072295954,0.020640973949863806,0.9884702714441775,0.9777318676992837,0.02982422663908977,0.030360932054192748,0.9777318676992837,0.9893666999612954,0.01372792162596083,0.016488931214688165,0.9893666999612954,0.9810626136936249,0.02354132879202846,0.010782125244905466,0.9810626136936249,-0.0,-0.0,1.0,0.0
0.9838953091130492,0.021405186133974494,0.026791937714285997,0.9838953091130492,NORMAL,0.9892890216817574,0.01495105342818261,0.01592632978685882,0.9892890216817574,0.9893394279778974,0.013931467056072771,0.018922311778439713,0.9893394279778974,0.9777318676992837,0.02982422663908977,0.030360932054192748,0.9777318676992837,0.9896809177443368,0.013292097853916789,0.01623920691368719,0.9896809177443368,0.9812297125108626,0.023307741454596957,0.010827807729062135,0.9812297125108626,-0.0,-0.0,1.0,0.0
0.9832164702883662,0.022275149341538916,0.026995257849410002,0.9832164702883662,NORMAL,0.9895020188080537,0.014709666217613254,0.015199066277479108,0.9895020188080537,0.9898518730436433,0.013287105450726682,0.01836141101386609,0.9898518730436433,0.9787073697563997,0.028570539808906087,0.027950160792098142,0.9787073697563997,0.9895786882633755,0.013405401642894445,0.016078078172448874,0.9895786882633755,0.9817363858651954,0.02259398741013567,0.009945669282384188,0.9817363858651954,-0.0,-0.0,1.0,0.0
0.9832164702883663,0.022275149341538198,0.02624551820692273,0.9832164702883663,NORMAL,0.989248165411747,0.01502615556726011,0.01532784511021633,0.989248165411747,0.9902483616723619,0.012854145278281447,0.017690331922224967,0.9902483616723619,0.9791761984591829,0.028024064703136828,0.027792079225474164,0.9791761984591829,0.9891314812316256,0.014010970912462657,0.01649301213259993,0.9891314812316256,0.9821854878419952,0.02199563406326527,0.010227170443955665,0.9821854878419952,-0.0,-0.0,1.0,0.0
0.9837210057804446,0.021561037530360472,0.025466266896716598,0.9837210057804446,NORMAL,0.9887357203460011,0.015669214726044586,0.015595446870880617,0.9887357203460011,0.9907152121949645,0.012294561202254743,0.016437247646258014,0.9907152121949645,0.9787073697563997,0.028570539808906087,0.029562150782866163,0.9787073697563997,0.9900960410396916,0.012825512990844615,0.014755558957001794,0.9900960410396916,0.9821854878419952,0.02199563406326527,0.010227170443955665,0.9821854878419952,-0.0,-0.0,1.0,0.0
0.9830424760868595,0.02228476064626495,0.026101965763465608,0.9830424760868595,NORMAL,0.9886027310972927,0.015838703449328796,0.015270809282658993,0.9886027310972927,0.9905488184360275,0.012531789496367097,0.016507435771410846,0.9905488184360275,0.9782385410536165,0.029116478505287004,0.030217725019845317,0.9782385410536165,0.9908771093453357,0.011829178504923129,0.013758412774426765,0.9908771093453357,0.9814011099248866,0.022977000528408842,0.010753849340969077,0.9814011099248866,-0.0,-0.0,1.0,0.0
0.9832088698457966,0.022051012608927785,0.026111736621676172,0.9832088698457966,NORMAL,0.9884818669496949,0.015985206706786603,0.015462898942357313,0.9884818669496949,0.9904380507906921,0.012660449355880073,0.016495903442128132,0.9904380507906921,0.9782385410536165,0.02911647850528665,0.03038103434779498,0.9782385410536165,0.9903597565690198,0.012410055633910216,0.014865094609631866,0.9903597565690198,0.9816831130844487,0.022612931914148388,0.01019185101504453,0.9816831130844487,-0.0,-0.0,1.0,0.0
0.9827420193231938,0.022601634152852688,0.027044910485573836,0.9827420193231938,NORMAL,0.9883710993043595,0.016113205226181346,0.01563141488177037,0.9883710993043595,0.9900734297490504,0.013106332102022578,0.016729301374297997,0.9900734297490504,0.9790229189707252,0.028143313271544547,0.02900896849993979,0.9790229189707252,0.9900258952951255,0.012799279314250983,0.014647545364787705,0.9900258952951255,0.9821322150612483,0.02201462080963153,0.009984774202597822,0.9821322150612483,-0.0,-0.0,1.0,0.0
0.9824881659268871,0.022913870450845246,0.026736786346562895,0.9824881659268871,NORMAL,0.9883710993043595,0.01611320522618171,0.01545487329719784,0.9883710993043595,0.9897395684751565,0.013495206004194208,0.01710956020133824,0.9897395684751565,0.9803169941123772,0.026436257971958477,0.026578208019008037,0.9803169941123772,0.9897450820223127,0.013168556667499944,0.014744515875611458,0.9897450820223127,0.9816831130844487,0.022612931914148388,0.010823351606655611,0.9816831130844487,-0.0,-0.0,1.0,0.0
0.9815236061188213,0.02408011333705357,0.02856587536190623,0.9815236061188213,NORMAL,0.9886027310972927,0.015838703449328796,0.0158037629574327,0.9886027310972927,0.9891020437343694,0.01438770729013481,0.018888003594604137,0.9891020437343694,0.9819684877512446,0.024182898607448662,0.02326509143458998,0.9819684877512446,0.9901467594427236,0.012652152199041705,0.014348957835788295,0.9901467594427236,0.9821322150612483,0.02201462080963153,0.011912206392817851,0.9821322150612483,-0.0,-0.0,1.0,0.0
0.980886081378034,0.024958180935457458,0.030344153926264023,0.980886081378034,NORMAL,0.9890044085177034,0.015323992010318702,0.015645614221417175,0.9890044085177034,0.9884517017093446,0.015135739649106994,0.01931354295887392,0.9884517017093446,0.9825326330685272,0.023533256930965776,0.021726125287642565,0.9825326330685272,0.9900137701940147,0.012822294076012625,0.015345560700962374,0.9900137701940147,0.9824142182208105,0.021649994893006386,0.011863792343924226,0.9824142182208105,-0.0,-0.0,1.0,0.0
0.9818506411861,0.02379358899845639,0.02824201568097589,0.9818506411861,NORMAL,0.9896832473423862,0.014443959436681605,0.013923965909272154,0.9896832473423862,0.9884517017093446,0.015135739649106994,0.01931354295887392,0.9884517017093446,0.9834054724689155,0.022378728517477138,0.019568924963432304,0.9834054724689155,0.9897599167977083,0.013139435001388332,0.015497479162393506,0.9897599167977083,0.9822806654583359,0.021817909466682345,0.01230255249751371,0.9822806654583359,-0.0,-0.0,1.0,0.0
0.9815364234030588,0.024222535665623168,0.029189898441653983,0.9815364234030588,NORMAL,0.9894516155494533,0.014719095850386403,0.014381295524752766,0.9894516155494533,0.9883038776852404,0.01533429642162322,0.01909211234687675,0.9883038776852404,0.9834054724689155,0.022378728517477138,0.019568924963432304,0.9834054724689155,0.9904102588227328,0.012389075226428153,0.014532419767502311,0.9904102588227328,0.9832440734373038,0.02072797358100355,0.01261240596018659,0.9832440734373038,-0.0,-0.0,1.0,0.0
0.9822152622277418,0.023355457374353253,0.02838072808810879,0.9822152622277418,NORMAL,0.9896832473423862,0.014443959436681605,0.013746173702693758,0.9896832473423862,0.9884061071662016,0.015221341673283765,0.018437108806415053,0.9884061071662016,0.984234081127664,0.02095691584660462,0.01927640779116417,0.984234081127664,0.9895290592407301,0.013419760981118963,0.015896882149561253,0.9895290592407301,0.9834164112014705,0.020558719893574166,0.013031538413918322,0.9834164112014705,-0.0,-0.0,1.0,0.0
0.9837987635358086,0.020913092829332257,0.02686584620006813,0.9837987635358086,NORMAL,0.9899148791353193,0.014168692620672784,0.013469990071541904,0.9899148791353193,0.9883038776852404,0.01533429642162358,0.019241793154305645,0.9883038776852404,0.9835938550108565,0.021841532497217712,0.019851449377397204,0.9835938550108565,0.988819470259332,0.014277548880037358,0.01684535225370983,0.988819470259332,0.9843850581273673,0.01938432412435021,0.01244641204102603,0.9843850581273673,-0.0,-0.0,1.0,0.0
0.9839959074514608,0.020701826666109858,0.026793502950770626,0.9839959074514608,NORMAL,0.9893002045886123,0.014925753791967053,0.014640775630954762,0.9893002045886123,0.9884146453305758,0.015206219553433499,0.01890077509013375,0.9884146453305758,0.9833612417272757,0.022113712285817034,0.019828883637211005,0.9833612417272757,0.9884548492176904,0.014722091149030406,0.016660594569605183,0.9884548492176904,0.9850976538417373,0.018532476775125657,0.01306113812488497,0.9850976538417373,-0.0,-0.0,1.0,0.0
0.9844431144832106,0.02010250689310356,0.025691469396740666,0.9844431144832106,NORMAL,0.98942106873621,0.014778996593713878,0.014789350825587728,0.98942106873621,0.9886369597901902,0.014850078366703016,0.018368181228917563,0.9886369597901902,0.9828924130244923,0.022665456478519815,0.020064697563684696,0.9828924130244923,0.9884548492176904,0.014722091149030041,0.01686679764022722,0.9884548492176904,0.9854638198877927,0.018090015799899238,0.013387783655336343,0.9854638198877927,-0.0,-0.0,1.0,0.0
